participant,group,eng_variety,spn_variety,have_ln,aoa,check_pass,check_fails,item,speaker_variety,condition,sentence_type,sentence,correct_response,response,is_correct,rt_raw,trial_n,sentence_dur,rt_adj
5ad4ed6b754a0d000162329e,native,NA,Mexico,Sí,NA,NA,NA,andalusian_mismatch_declarative-narrow-focus_La-maestra-vive-en-Paris.wav,chilean,mismatch,declarative-narrow-focus,La maestra vive en Paris,0,0,1,2.083,0,1.33,0.7530000000000001
5ad4ed6b754a0d000162329e,native,NA,Mexico,Sí,NA,NA,NA,andalusian_mismatch_declarative-broad-focus_Mi-madre-come-la-fruta.wav,castilian,mismatch,declarative-broad-focus,Mi madre come la fruta,0,0,1,1.768,1,1.49,0.278
5ad4ed6b754a0d000162329e,native,NA,Mexico,Sí,NA,NA,NA,andalusian_match_interrogative-partial-wh_Cuando-bebia-el-vino.wav,castilian,match,interrogative-partial-wh,Cuando bebia el vino,1,1,1,1.757,2,1.33,0.4269999999999998
5ad4ed6b754a0d000162329e,native,NA,Mexico,Sí,NA,NA,NA,andalusian_match_declarative-broad-focus_Manuela-vende-el-carro.wav,castilian,match,declarative-broad-focus,Manuela vende el carro,0,0,1,3.103,3,1.53,1.5730000000000002
5ad4ed6b754a0d000162329e,native,NA,Mexico,Sí,NA,NA,NA,andalusian_mismatch_declarative-narrow-focus_El-nino-oye-el-rio.wav,puertorican,mismatch,declarative-narrow-focus,El nino oye el rio,0,0,1,2.126,4,1.11,1.0159999999999998
5ad4ed6b754a0d000162329e,native,NA,Mexico,Sí,NA,NA,NA,andalusian_mismatch_declarative-broad-focus_El-hombre-mira-la-luna.wav,peruvian,mismatch,declarative-broad-focus,El hombre mira la luna,0,0,1,1.818,5,1.35,0.46799999999999997
5ad4ed6b754a0d000162329e,native,NA,Mexico,Sí,NA,NA,NA,andalusian_match_declarative-narrow-focus_Emilio-ama-la-marcha.wav,andalusian,match,declarative-narrow-focus,Emilio ama la marcha,0,0,1,2.234,6,1.48,0.754
5ad4ed6b754a0d000162329e,native,NA,Mexico,Sí,NA,NA,NA,andalusian_mismatch_interrogative-total-yn_Mi-madre-come-la-fruta.wav,cuban,mismatch,interrogative-total-yn,Mi madre come la fruta,1,0,0,2.684,7,1.27,1.4140000000000001
5ad4ed6b754a0d000162329e,native,NA,Mexico,Sí,NA,NA,NA,andalusian_match_declarative-broad-focus_Emilio-ama-la-marcha.wav,argentine,match,declarative-broad-focus,Emilio ama la marcha,0,0,1,1.936,8,1.38,0.556
5ad4ed6b754a0d000162329e,native,NA,Mexico,Sí,NA,NA,NA,andalusian_mismatch_interrogative-total-yn_La-maestra-vive-en-Paris.wav,cuban,mismatch,interrogative-total-yn,La maestra vive en Paris,1,0,0,1.991,9,1.4,0.5910000000000002
5ad4ed6b754a0d000162329e,native,NA,Mexico,Sí,NA,NA,NA,andalusian_mismatch_declarative-broad-focus_El-nino-oye-el-rio.wav,andalusian,mismatch,declarative-broad-focus,El nino oye el rio,0,0,1,1.834,10,1.33,0.504
5ad4ed6b754a0d000162329e,native,NA,Mexico,Sí,NA,NA,NA,andalusian_match_interrogative-total-yn_Manuela-vende-el-carro.wav,argentine,match,interrogative-total-yn,Manuela vende el carro,1,1,1,2.258,11,1.45,0.808
5ad4ed6b754a0d000162329e,native,NA,Mexico,Sí,NA,NA,NA,andalusian_match_declarative-broad-focus_Ana-lleva-el-abrigo.wav,cuban,match,declarative-broad-focus,Ana lleva el abrigo,0,0,1,1.858,12,1.24,0.6180000000000001
5ad4ed6b754a0d000162329e,native,NA,Mexico,Sí,NA,NA,NA,andalusian_mismatch_declarative-broad-focus_El-bebe-comia-muy-bien.wav,argentine,mismatch,declarative-broad-focus,El bebe comia muy bien,0,0,1,3.443,13,1.51,1.933
5ad4ed6b754a0d000162329e,native,NA,Mexico,Sí,NA,NA,NA,andalusian_match_interrogative-partial-wh_Cuando-lleva-el-abrigo.wav,chilean,match,interrogative-partial-wh,Cuando lleva el abrigo,1,1,1,1.435,14,1.17,0.2650000000000001
5ad4ed6b754a0d000162329e,native,NA,Mexico,Sí,NA,NA,NA,andalusian_mismatch_declarative-narrow-focus_Mi-madre-come-la-fruta.wav,peruvian,mismatch,declarative-narrow-focus,Mi madre come la fruta,0,0,1,1.753,15,1.63,0.123
5ad4ed6b754a0d000162329e,native,NA,Mexico,Sí,NA,NA,NA,andalusian_mismatch_declarative-broad-focus_La-maestra-vive-en-Paris.wav,peruvian,mismatch,declarative-broad-focus,La maestra vive en Paris,0,0,1,1.862,16,1.75,0.1120000000000001
5ad4ed6b754a0d000162329e,native,NA,Mexico,Sí,NA,NA,NA,andalusian_mismatch_interrogative-total-yn_El-hombre-mira-la-luna.wav,andalusian,mismatch,interrogative-total-yn,El hombre mira la luna,1,1,1,1.71,17,1.32,0.3899999999999999
5ad4ed6b754a0d000162329e,native,NA,Mexico,Sí,NA,NA,NA,andalusian_mismatch_interrogative-partial-wh_Por-que-oia-el-rio.wav,puertorican,mismatch,interrogative-partial-wh,Por que oia el rio,1,1,1,1.592,18,0.99,0.6020000000000001
5ad4ed6b754a0d000162329e,native,NA,Mexico,Sí,NA,NA,NA,andalusian_match_interrogative-partial-wh_Por-que-abre-el-regalo.wav,chilean,match,interrogative-partial-wh,Por que abre el regalo,1,1,1,4.266,19,1.28,2.9859999999999998
5ad4ed6b754a0d000162329e,native,NA,Mexico,Sí,NA,NA,NA,andalusian_match_interrogative-partial-wh_Cuando-leia-el-libro.wav,cuban,match,interrogative-partial-wh,Cuando leia el libro,1,0,0,1.15,20,1.18,-0.030000000000000027
5ad4ed6b754a0d000162329e,native,NA,Mexico,Sí,NA,NA,NA,andalusian_match_interrogative-total-yn_Ana-lleva-el-abrigo.wav,argentine,match,interrogative-total-yn,Ana lleva el abrigo,1,1,1,1.626,21,1.34,0.2859999999999998
5ad4ed6b754a0d000162329e,native,NA,Mexico,Sí,NA,NA,NA,andalusian_match_interrogative-total-yn_Daniel-iba-a-Bolivia.wav,mexican,match,interrogative-total-yn,Daniel iba a Bolivia,1,1,1,4.696,22,1.33,3.3659999999999997
5ad4ed6b754a0d000162329e,native,NA,Mexico,Sí,NA,NA,NA,andalusian_mismatch_interrogative-total-yn_Mi-tia-odia-la-lluvia.wav,argentine,mismatch,interrogative-total-yn,Mi tia odia la lluvia,1,1,1,2.306,23,1.43,0.8760000000000001
5ad4ed6b754a0d000162329e,native,NA,Mexico,Sí,NA,NA,NA,andalusian_match_declarative-narrow-focus_Maria-bebe-el-vino.wav,argentine,match,declarative-narrow-focus,Maria bebe el vino,0,0,1,1.501,24,1.22,0.2809999999999999
5ad4ed6b754a0d000162329e,native,NA,Mexico,Sí,NA,NA,NA,andalusian_match_interrogative-partial-wh_Por-que-hablaba-del-agua.wav,castilian,match,interrogative-partial-wh,Por que hablaba del agua,1,1,1,1.377,25,1.46,-0.08299999999999996
5ad4ed6b754a0d000162329e,native,NA,Mexico,Sí,NA,NA,NA,andalusian_mismatch_interrogative-partial-wh_Por-que-odiaba-la-lluvia.wav,cuban,mismatch,interrogative-partial-wh,Por que odiaba la lluvia,1,1,1,1.634,26,1.38,0.254
5ad4ed6b754a0d000162329e,native,NA,Mexico,Sí,NA,NA,NA,andalusian_mismatch_interrogative-total-yn_El-bebe-comia-muy-bien.wav,argentine,mismatch,interrogative-total-yn,El bebe comia muy bien,1,1,1,4.797,27,1.29,3.5069999999999997
5ad4ed6b754a0d000162329e,native,NA,Mexico,Sí,NA,NA,NA,andalusian_mismatch_declarative-broad-focus_Mi-tia-odia-la-lluvia.wav,chilean,mismatch,declarative-broad-focus,Mi tia odia la lluvia,0,0,1,1.742,28,1.34,0.4019999999999999
5ad4ed6b754a0d000162329e,native,NA,Mexico,Sí,NA,NA,NA,andalusian_mismatch_interrogative-partial-wh_Cuando-lavaba-el-plato.wav,puertorican,mismatch,interrogative-partial-wh,Cuando lavaba el plato,1,1,1,2.799,29,1.22,1.579
5ad4ed6b754a0d000162329e,native,NA,Mexico,Sí,NA,NA,NA,andalusian_match_declarative-broad-focus_Daniel-iba-a-Bolivia.wav,peruvian,match,declarative-broad-focus,Daniel iba a Bolivia,0,0,1,2.117,30,1.44,0.677
5ad4ed6b754a0d000162329e,native,NA,Mexico,Sí,NA,NA,NA,andalusian_mismatch_declarative-narrow-focus_La-nina-lava-el-plato.wav,chilean,mismatch,declarative-narrow-focus,La nina lava el plato,0,0,1,1.474,31,1.22,0.254
5ad4ed6b754a0d000162329e,native,NA,Mexico,Sí,NA,NA,NA,andalusian_match_declarative-narrow-focus_Mariano-habla-del-tiempo.wav,peruvian,match,declarative-narrow-focus,Mariano habla del tiempo,0,0,1,1.858,32,1.6,0.258
5ad4ed6b754a0d000162329e,native,NA,Mexico,Sí,NA,NA,NA,andalusian_match_declarative-broad-focus_Marta-abre-el-regalo.wav,mexican,match,declarative-broad-focus,Marta abre el regalo,0,0,1,1.256,33,1.12,0.1359999999999999
5ad4ed6b754a0d000162329e,native,NA,Mexico,Sí,NA,NA,NA,andalusian_mismatch_interrogative-total-yn_La-nina-lava-el-plato.wav,mexican,mismatch,interrogative-total-yn,La nina lava el plato,1,1,1,1.825,34,1.25,0.575
5ad4ed6b754a0d000162329e,native,NA,Mexico,Sí,NA,NA,NA,andalusian_mismatch_declarative-narrow-focus_Mi-novio-viene-del-lago.wav,cuban,mismatch,declarative-narrow-focus,Mi novio viene del lago,0,0,1,1.709,35,1.32,0.389
5ad4ed6b754a0d000162329e,native,NA,Mexico,Sí,NA,NA,NA,andalusian_mismatch_declarative-broad-focus_Mi-novio-viene-del-lago.wav,chilean,mismatch,declarative-broad-focus,Mi novio viene del lago,0,0,1,1.532,36,1.44,0.09200000000000008
5ad4ed6b754a0d000162329e,native,NA,Mexico,Sí,NA,NA,NA,andalusian_match_declarative-narrow-focus_Marta-abre-el-regalo.wav,argentine,match,declarative-narrow-focus,Marta abre el regalo,0,0,1,1.588,37,1.31,0.278
5ad4ed6b754a0d000162329e,native,NA,Mexico,Sí,NA,NA,NA,andalusian_mismatch_interrogative-partial-wh_Cuando-comia-la-fruta.wav,mexican,mismatch,interrogative-partial-wh,Cuando comia la fruta,1,1,1,1.187,38,1.07,0.11699999999999999
5ad4ed6b754a0d000162329e,native,NA,Mexico,Sí,NA,NA,NA,andalusian_match_interrogative-partial-wh_Por-que-iba-a-Bolivia.wav,mexican,match,interrogative-partial-wh,Por que iba a Bolivia,1,1,1,1.734,39,1.24,0.494
5ad4ed6b754a0d000162329e,native,NA,Mexico,Sí,NA,NA,NA,andalusian_mismatch_declarative-broad-focus_La-nina-lava-el-plato.wav,puertorican,mismatch,declarative-broad-focus,La nina lava el plato,0,0,1,1.203,40,1.14,0.06300000000000017
5ad4ed6b754a0d000162329e,native,NA,Mexico,Sí,NA,NA,NA,andalusian_mismatch_interrogative-partial-wh_Por-que-vivia-en-Paris.wav,castilian,mismatch,interrogative-partial-wh,Por que vivia en Paris,1,1,1,1.659,41,1.49,0.16900000000000004
5ad4ed6b754a0d000162329e,native,NA,Mexico,Sí,NA,NA,NA,andalusian_match_declarative-narrow-focus_Manuela-vende-el-carro.wav,argentine,match,declarative-narrow-focus,Manuela vende el carro,0,0,1,1.687,42,1.5,0.18700000000000006
5ad4ed6b754a0d000162329e,native,NA,Mexico,Sí,NA,NA,NA,andalusian_match_interrogative-total-yn_Mariano-habla-del-tiempo.wav,puertorican,match,interrogative-total-yn,Mariano habla del tiempo,1,1,1,2.54,43,1.27,1.27
5ad4ed6b754a0d000162329e,native,NA,Mexico,Sí,NA,NA,NA,andalusian_mismatch_interrogative-partial-wh_Por-que-desayuna-muy-bien.wav,puertorican,mismatch,interrogative-partial-wh,Por que desayuna muy bien,1,1,1,1.904,44,1.26,0.6439999999999999
5ad4ed6b754a0d000162329e,native,NA,Mexico,Sí,NA,NA,NA,andalusian_mismatch_interrogative-partial-wh_Por-que-venia-del-lago.wav,peruvian,mismatch,interrogative-partial-wh,Por que venia del lago,1,1,1,1.5,45,1.43,0.07000000000000006
5ad4ed6b754a0d000162329e,native,NA,Mexico,Sí,NA,NA,NA,andalusian_match_interrogative-total-yn_Marta-abre-el-regalo.wav,argentine,match,interrogative-total-yn,Marta abre el regalo,1,0,0,1.258,46,1.34,-0.08200000000000007
5ad4ed6b754a0d000162329e,native,NA,Mexico,Sí,NA,NA,NA,andalusian_mismatch_declarative-narrow-focus_El-hombre-mira-la-luna.wav,peruvian,mismatch,declarative-narrow-focus,El hombre mira la luna,0,0,1,1.645,47,1.43,0.21500000000000008
5ad4ed6b754a0d000162329e,native,NA,Mexico,Sí,NA,NA,NA,andalusian_match_interrogative-total-yn_Maria-bebe-el-vino.wav,chilean,match,interrogative-total-yn,Maria bebe el vino,1,0,0,2.45,48,1.2,1.2500000000000002
5ad4ed6b754a0d000162329e,native,NA,Mexico,Sí,NA,NA,NA,andalusian_match_declarative-narrow-focus_Daniel-iba-a-Bolivia.wav,cuban,match,declarative-narrow-focus,Daniel iba a Bolivia,0,0,1,1.957,49,1.29,0.667
5ad4ed6b754a0d000162329e,native,NA,Mexico,Sí,NA,NA,NA,andalusian_match_declarative-broad-focus_David-leia-el-libro.wav,cuban,match,declarative-broad-focus,David leia el libro,0,0,1,2.912,50,1.41,1.502
5ad4ed6b754a0d000162329e,native,NA,Mexico,Sí,NA,NA,NA,andalusian_mismatch_declarative-narrow-focus_El-bebe-comia-muy-bien.wav,peruvian,mismatch,declarative-narrow-focus,El bebe comia muy bien,0,0,1,2.215,51,1.67,0.5449999999999999
5ad4ed6b754a0d000162329e,native,NA,Mexico,Sí,NA,NA,NA,andalusian_match_declarative-narrow-focus_David-leia-el-libro.wav,puertorican,match,declarative-narrow-focus,David leia el libro,0,0,1,1.438,52,1.05,0.3879999999999999
5ad4ed6b754a0d000162329e,native,NA,Mexico,Sí,NA,NA,NA,andalusian_match_interrogative-total-yn_Emilio-ama-la-marcha.wav,chilean,match,interrogative-total-yn,Emilio ama la marcha,1,1,1,1.569,53,1.33,0.23899999999999988
5ad4ed6b754a0d000162329e,native,NA,Mexico,Sí,NA,NA,NA,andalusian_mismatch_interrogative-total-yn_El-nino-oye-el-rio.wav,cuban,mismatch,interrogative-total-yn,El nino oye el rio,1,1,1,1.6,54,1.06,0.54
5ad4ed6b754a0d000162329e,native,NA,Mexico,Sí,NA,NA,NA,andalusian_match_declarative-narrow-focus_Ana-lleva-el-abrigo.wav,mexican,match,declarative-narrow-focus,Ana lleva el abrigo,0,0,1,1.668,55,1.06,0.6079999999999999
5ad4ed6b754a0d000162329e,native,NA,Mexico,Sí,NA,NA,NA,andalusian_mismatch_declarative-narrow-focus_Mi-tia-odia-la-lluvia.wav,chilean,mismatch,declarative-narrow-focus,Mi tia odia la lluvia,0,0,1,1.942,56,1.44,0.502
5ad4ed6b754a0d000162329e,native,NA,Mexico,Sí,NA,NA,NA,andalusian_mismatch_interrogative-partial-wh_Cuando-miraba-la-luna.wav,chilean,mismatch,interrogative-partial-wh,Cuando miraba la luna,1,1,1,1.52,57,1.25,0.27
5ad4ed6b754a0d000162329e,native,NA,Mexico,Sí,NA,NA,NA,andalusian_match_interrogative-total-yn_David-leia-el-libro.wav,argentine,match,interrogative-total-yn,David leia el libro,1,1,1,1.535,58,1.32,0.21499999999999986
5ad4ed6b754a0d000162329e,native,NA,Mexico,Sí,NA,NA,NA,andalusian_match_interrogative-partial-wh_Cuando-vendia-el-carro.wav,argentine,match,interrogative-partial-wh,Cuando vendia el carro,1,1,1,1.37,59,1.11,0.26
5ad4ed6b754a0d000162329e,native,NA,Mexico,Sí,NA,NA,NA,andalusian_match_declarative-broad-focus_Maria-bebe-el-vino.wav,peruvian,match,declarative-broad-focus,Maria bebe el vino,0,0,1,1.551,60,1.36,0.19099999999999984
5ad4ed6b754a0d000162329e,native,NA,Mexico,Sí,NA,NA,NA,andalusian_match_declarative-broad-focus_Mariano-habla-del-tiempo.wav,mexican,match,declarative-broad-focus,Mariano habla del tiempo,0,0,1,1.868,61,1.22,0.6480000000000001
5ad4ed6b754a0d000162329e,native,NA,Mexico,Sí,NA,NA,NA,andalusian_mismatch_interrogative-total-yn_Mi-novio-viene-del-lago.wav,mexican,mismatch,interrogative-total-yn,Mi novio viene del lago,1,1,1,1.741,62,1.29,0.45100000000000007
5ad4ed6b754a0d000162329e,native,NA,Mexico,Sí,NA,NA,NA,andalusian_match_interrogative-partial-wh_Por-que-ama-la-navidad.wav,puertorican,match,interrogative-partial-wh,Por que ama la navidad,1,1,1,1.934,63,1.17,0.764
5b376f54cf5e6a00018309ef,native,NA,Spain,si,NA,NA,NA,andalusian_mismatch_declarative-broad-focus_El-nino-oye-el-rio.wav,andalusian,mismatch,declarative-broad-focus,El nino oye el rio,0,0,1,2.097,0,1.33,0.7669999999999999
5b376f54cf5e6a00018309ef,native,NA,Spain,si,NA,NA,NA,andalusian_match_interrogative-total-yn_Ana-lleva-el-abrigo.wav,castilian,match,interrogative-total-yn,Ana lleva el abrigo,1,1,1,1.268,1,1.27,-0.0020000000000000018
5b376f54cf5e6a00018309ef,native,NA,Spain,si,NA,NA,NA,andalusian_mismatch_interrogative-partial-wh_Cuando-comia-la-fruta.wav,cuban,mismatch,interrogative-partial-wh,Cuando comia la fruta,1,1,1,1.186,2,1.03,0.15599999999999992
5b376f54cf5e6a00018309ef,native,NA,Spain,si,NA,NA,NA,andalusian_mismatch_declarative-narrow-focus_Mi-tia-odia-la-lluvia.wav,mexican,mismatch,declarative-narrow-focus,Mi tia odia la lluvia,0,0,1,1.721,3,1.21,0.5110000000000001
5b376f54cf5e6a00018309ef,native,NA,Spain,si,NA,NA,NA,andalusian_mismatch_declarative-narrow-focus_Mi-novio-viene-del-lago.wav,cuban,mismatch,declarative-narrow-focus,Mi novio viene del lago,0,0,1,1.567,4,1.32,0.2469999999999999
5b376f54cf5e6a00018309ef,native,NA,Spain,si,NA,NA,NA,andalusian_match_interrogative-total-yn_Manuela-vende-el-carro.wav,cuban,match,interrogative-total-yn,Manuela vende el carro,1,0,0,4.635,5,1.22,3.415
5b376f54cf5e6a00018309ef,native,NA,Spain,si,NA,NA,NA,andalusian_mismatch_declarative-narrow-focus_Mi-madre-come-la-fruta.wav,andalusian,mismatch,declarative-narrow-focus,Mi madre come la fruta,0,0,1,1.704,6,1.38,0.32400000000000007
5b376f54cf5e6a00018309ef,native,NA,Spain,si,NA,NA,NA,andalusian_mismatch_interrogative-total-yn_El-bebe-comia-muy-bien.wav,cuban,mismatch,interrogative-total-yn,El bebe comia muy bien,1,1,1,1.496,7,1.29,0.20599999999999996
5b376f54cf5e6a00018309ef,native,NA,Spain,si,NA,NA,NA,andalusian_match_declarative-broad-focus_Manuela-vende-el-carro.wav,puertorican,match,declarative-broad-focus,Manuela vende el carro,0,0,1,1.873,8,1.24,0.633
5b376f54cf5e6a00018309ef,native,NA,Spain,si,NA,NA,NA,andalusian_match_interrogative-partial-wh_Por-que-ama-la-navidad.wav,chilean,match,interrogative-partial-wh,Por que ama la navidad,1,1,1,1.249,9,1.19,0.05900000000000016
5b376f54cf5e6a00018309ef,native,NA,Spain,si,NA,NA,NA,andalusian_match_interrogative-partial-wh_Cuando-bebia-el-vino.wav,puertorican,match,interrogative-partial-wh,Cuando bebia el vino,1,1,1,1.609,10,1.07,0.5389999999999999
5b376f54cf5e6a00018309ef,native,NA,Spain,si,NA,NA,NA,andalusian_match_declarative-narrow-focus_Maria-bebe-el-vino.wav,andalusian,match,declarative-narrow-focus,Maria bebe el vino,0,0,1,3.693,11,1.34,2.3529999999999998
5b376f54cf5e6a00018309ef,native,NA,Spain,si,NA,NA,NA,andalusian_match_interrogative-total-yn_Emilio-ama-la-marcha.wav,andalusian,match,interrogative-total-yn,Emilio ama la marcha,1,1,1,1.434,12,1.38,0.05400000000000005
5b376f54cf5e6a00018309ef,native,NA,Spain,si,NA,NA,NA,andalusian_match_interrogative-partial-wh_Cuando-vendia-el-carro.wav,castilian,match,interrogative-partial-wh,Cuando vendia el carro,1,1,1,1.593,13,1.36,0.23299999999999987
5b376f54cf5e6a00018309ef,native,NA,Spain,si,NA,NA,NA,andalusian_match_declarative-narrow-focus_Marta-abre-el-regalo.wav,castilian,match,declarative-narrow-focus,Marta abre el regalo,0,0,1,1.862,14,1.4,0.4620000000000002
5b376f54cf5e6a00018309ef,native,NA,Spain,si,NA,NA,NA,andalusian_mismatch_interrogative-total-yn_El-hombre-mira-la-luna.wav,cuban,mismatch,interrogative-total-yn,El hombre mira la luna,1,1,1,1.319,15,1.11,0.20899999999999985
5b376f54cf5e6a00018309ef,native,NA,Spain,si,NA,NA,NA,andalusian_match_declarative-narrow-focus_Emilio-ama-la-marcha.wav,chilean,match,declarative-narrow-focus,Emilio ama la marcha,0,0,1,1.476,16,1.28,0.19599999999999995
5b376f54cf5e6a00018309ef,native,NA,Spain,si,NA,NA,NA,andalusian_match_interrogative-total-yn_Daniel-iba-a-Bolivia.wav,chilean,match,interrogative-total-yn,Daniel iba a Bolivia,1,1,1,1.271,17,1.06,0.21099999999999985
5b376f54cf5e6a00018309ef,native,NA,Spain,si,NA,NA,NA,andalusian_match_declarative-broad-focus_Emilio-ama-la-marcha.wav,peruvian,match,declarative-broad-focus,Emilio ama la marcha,0,0,1,1.602,18,1.44,0.16200000000000014
5b376f54cf5e6a00018309ef,native,NA,Spain,si,NA,NA,NA,andalusian_mismatch_declarative-broad-focus_Mi-novio-viene-del-lago.wav,mexican,mismatch,declarative-broad-focus,Mi novio viene del lago,0,0,1,1.318,19,1.14,0.17800000000000016
5b376f54cf5e6a00018309ef,native,NA,Spain,si,NA,NA,NA,andalusian_match_declarative-broad-focus_Ana-lleva-el-abrigo.wav,mexican,match,declarative-broad-focus,Ana lleva el abrigo,0,0,1,2.01,20,1.09,0.9199999999999997
5b376f54cf5e6a00018309ef,native,NA,Spain,si,NA,NA,NA,andalusian_mismatch_declarative-narrow-focus_El-bebe-comia-muy-bien.wav,puertorican,mismatch,declarative-narrow-focus,El bebe comia muy bien,0,0,1,1.801,21,1.19,0.611
5b376f54cf5e6a00018309ef,native,NA,Spain,si,NA,NA,NA,andalusian_mismatch_declarative-narrow-focus_La-maestra-vive-en-Paris.wav,mexican,mismatch,declarative-narrow-focus,La maestra vive en Paris,0,0,1,1.518,22,1.23,0.28800000000000003
5b376f54cf5e6a00018309ef,native,NA,Spain,si,NA,NA,NA,andalusian_mismatch_interrogative-total-yn_Mi-novio-viene-del-lago.wav,mexican,mismatch,interrogative-total-yn,Mi novio viene del lago,1,1,1,1.649,23,1.29,0.359
5b376f54cf5e6a00018309ef,native,NA,Spain,si,NA,NA,NA,andalusian_mismatch_declarative-broad-focus_Mi-madre-come-la-fruta.wav,andalusian,mismatch,declarative-broad-focus,Mi madre come la fruta,0,0,1,1.437,24,1.31,0.127
5b376f54cf5e6a00018309ef,native,NA,Spain,si,NA,NA,NA,andalusian_match_declarative-narrow-focus_David-leia-el-libro.wav,argentine,match,declarative-narrow-focus,David leia el libro,0,0,1,1.326,25,1.13,0.19600000000000017
5b376f54cf5e6a00018309ef,native,NA,Spain,si,NA,NA,NA,andalusian_match_declarative-narrow-focus_Mariano-habla-del-tiempo.wav,puertorican,match,declarative-narrow-focus,Mariano habla del tiempo,0,0,1,1.493,26,1.31,0.18300000000000005
5b376f54cf5e6a00018309ef,native,NA,Spain,si,NA,NA,NA,andalusian_mismatch_declarative-broad-focus_El-hombre-mira-la-luna.wav,cuban,mismatch,declarative-broad-focus,El hombre mira la luna,0,0,1,1.373,27,1.13,0.2430000000000001
5b376f54cf5e6a00018309ef,native,NA,Spain,si,NA,NA,NA,andalusian_match_declarative-broad-focus_Maria-bebe-el-vino.wav,cuban,match,declarative-broad-focus,Maria bebe el vino,0,0,1,1.852,28,1.25,0.6020000000000001
5b376f54cf5e6a00018309ef,native,NA,Spain,si,NA,NA,NA,andalusian_match_interrogative-total-yn_Mariano-habla-del-tiempo.wav,cuban,match,interrogative-total-yn,Mariano habla del tiempo,1,1,1,1.523,29,1.44,0.08299999999999996
5b376f54cf5e6a00018309ef,native,NA,Spain,si,NA,NA,NA,andalusian_mismatch_interrogative-partial-wh_Por-que-oia-el-rio.wav,andalusian,mismatch,interrogative-partial-wh,Por que oia el rio,1,1,1,1.637,30,1.27,0.367
5b376f54cf5e6a00018309ef,native,NA,Spain,si,NA,NA,NA,andalusian_mismatch_declarative-broad-focus_Mi-tia-odia-la-lluvia.wav,argentine,mismatch,declarative-broad-focus,Mi tia odia la lluvia,0,0,1,3.551,31,1.63,1.9210000000000003
5b376f54cf5e6a00018309ef,native,NA,Spain,si,NA,NA,NA,andalusian_match_declarative-broad-focus_Mariano-habla-del-tiempo.wav,mexican,match,declarative-broad-focus,Mariano habla del tiempo,0,0,1,1.334,32,1.22,0.1140000000000001
5b376f54cf5e6a00018309ef,native,NA,Spain,si,NA,NA,NA,andalusian_match_declarative-broad-focus_Marta-abre-el-regalo.wav,peruvian,match,declarative-broad-focus,Marta abre el regalo,0,0,1,1.521,33,1.46,0.06099999999999994
5b376f54cf5e6a00018309ef,native,NA,Spain,si,NA,NA,NA,andalusian_mismatch_declarative-broad-focus_La-maestra-vive-en-Paris.wav,argentine,mismatch,declarative-broad-focus,La maestra vive en Paris,0,0,1,1.642,34,1.43,0.21199999999999997
5b376f54cf5e6a00018309ef,native,NA,Spain,si,NA,NA,NA,andalusian_mismatch_interrogative-total-yn_La-maestra-vive-en-Paris.wav,puertorican,mismatch,interrogative-total-yn,La maestra vive en Paris,1,1,1,1.419,35,1.31,0.10899999999999999
5b376f54cf5e6a00018309ef,native,NA,Spain,si,NA,NA,NA,andalusian_mismatch_interrogative-partial-wh_Cuando-lavaba-el-plato.wav,peruvian,mismatch,interrogative-partial-wh,Cuando lavaba el plato,1,1,1,2.003,36,1.38,0.6230000000000002
5b376f54cf5e6a00018309ef,native,NA,Spain,si,NA,NA,NA,andalusian_match_interrogative-total-yn_David-leia-el-libro.wav,castilian,match,interrogative-total-yn,David leia el libro,1,1,1,1.633,37,1.43,0.20300000000000007
5b376f54cf5e6a00018309ef,native,NA,Spain,si,NA,NA,NA,andalusian_match_interrogative-total-yn_Maria-bebe-el-vino.wav,castilian,match,interrogative-total-yn,Maria bebe el vino,1,1,1,1.292,38,1.31,-0.018000000000000016
5b376f54cf5e6a00018309ef,native,NA,Spain,si,NA,NA,NA,andalusian_mismatch_interrogative-partial-wh_Por-que-vivia-en-Paris.wav,chilean,mismatch,interrogative-partial-wh,Por que vivia en Paris,1,1,1,1.219,39,1.38,-0.1609999999999998
5b376f54cf5e6a00018309ef,native,NA,Spain,si,NA,NA,NA,andalusian_mismatch_interrogative-total-yn_Mi-tia-odia-la-lluvia.wav,castilian,mismatch,interrogative-total-yn,Mi tia odia la lluvia,1,1,1,1.625,40,1.46,0.16500000000000004
5b376f54cf5e6a00018309ef,native,NA,Spain,si,NA,NA,NA,andalusian_match_interrogative-partial-wh_Por-que-abre-el-regalo.wav,puertorican,match,interrogative-partial-wh,Por que abre el regalo,1,1,1,1.734,41,1.15,0.5840000000000001
5b376f54cf5e6a00018309ef,native,NA,Spain,si,NA,NA,NA,andalusian_mismatch_interrogative-partial-wh_Por-que-odiaba-la-lluvia.wav,castilian,mismatch,interrogative-partial-wh,Por que odiaba la lluvia,1,1,1,1.232,42,1.55,-0.31800000000000006
5b376f54cf5e6a00018309ef,native,NA,Spain,si,NA,NA,NA,andalusian_mismatch_declarative-narrow-focus_La-nina-lava-el-plato.wav,chilean,mismatch,declarative-narrow-focus,La nina lava el plato,0,0,1,1.588,43,1.22,0.3680000000000001
5b376f54cf5e6a00018309ef,native,NA,Spain,si,NA,NA,NA,andalusian_match_interrogative-total-yn_Marta-abre-el-regalo.wav,argentine,match,interrogative-total-yn,Marta abre el regalo,1,1,1,1.567,44,1.34,0.22699999999999987
5b376f54cf5e6a00018309ef,native,NA,Spain,si,NA,NA,NA,andalusian_match_interrogative-partial-wh_Por-que-iba-a-Bolivia.wav,peruvian,match,interrogative-partial-wh,Por que iba a Bolivia,1,1,1,1.621,45,1.29,0.33099999999999996
5b376f54cf5e6a00018309ef,native,NA,Spain,si,NA,NA,NA,andalusian_match_declarative-broad-focus_David-leia-el-libro.wav,castilian,match,declarative-broad-focus,David leia el libro,0,0,1,1.905,46,1.48,0.42500000000000004
5b376f54cf5e6a00018309ef,native,NA,Spain,si,NA,NA,NA,andalusian_match_declarative-narrow-focus_Manuela-vende-el-carro.wav,castilian,match,declarative-narrow-focus,Manuela vende el carro,0,0,1,1.44,47,1.44,0
5b376f54cf5e6a00018309ef,native,NA,Spain,si,NA,NA,NA,andalusian_match_declarative-broad-focus_Daniel-iba-a-Bolivia.wav,castilian,match,declarative-broad-focus,Daniel iba a Bolivia,0,0,1,1.475,48,1.46,0.015000000000000124
5b376f54cf5e6a00018309ef,native,NA,Spain,si,NA,NA,NA,andalusian_match_interrogative-partial-wh_Cuando-leia-el-libro.wav,mexican,match,interrogative-partial-wh,Cuando leia el libro,1,1,1,1.57,49,1.03,0.54
5b376f54cf5e6a00018309ef,native,NA,Spain,si,NA,NA,NA,andalusian_mismatch_declarative-narrow-focus_El-nino-oye-el-rio.wav,castilian,mismatch,declarative-narrow-focus,El nino oye el rio,0,0,1,1.512,50,1.39,0.12200000000000011
5b376f54cf5e6a00018309ef,native,NA,Spain,si,NA,NA,NA,andalusian_mismatch_interrogative-total-yn_Mi-madre-come-la-fruta.wav,argentine,mismatch,interrogative-total-yn,Mi madre come la fruta,1,1,1,1.468,51,1.5,-0.03200000000000003
5b376f54cf5e6a00018309ef,native,NA,Spain,si,NA,NA,NA,andalusian_match_interrogative-partial-wh_Por-que-hablaba-del-agua.wav,chilean,match,interrogative-partial-wh,Por que hablaba del agua,1,1,1,1.384,52,1.49,-0.1060000000000001
5b376f54cf5e6a00018309ef,native,NA,Spain,si,NA,NA,NA,andalusian_mismatch_declarative-narrow-focus_El-hombre-mira-la-luna.wav,andalusian,mismatch,declarative-narrow-focus,El hombre mira la luna,0,0,1,1.606,53,1.33,0.276
5b376f54cf5e6a00018309ef,native,NA,Spain,si,NA,NA,NA,andalusian_mismatch_interrogative-total-yn_La-nina-lava-el-plato.wav,cuban,mismatch,interrogative-total-yn,La nina lava el plato,1,0,0,1.529,54,1.19,0.33899999999999997
5b376f54cf5e6a00018309ef,native,NA,Spain,si,NA,NA,NA,andalusian_mismatch_interrogative-partial-wh_Cuando-miraba-la-luna.wav,mexican,mismatch,interrogative-partial-wh,Cuando miraba la luna,1,1,1,2.039,55,1.05,0.9890000000000001
5b376f54cf5e6a00018309ef,native,NA,Spain,si,NA,NA,NA,andalusian_mismatch_declarative-broad-focus_La-nina-lava-el-plato.wav,castilian,mismatch,declarative-broad-focus,La nina lava el plato,0,0,1,1.673,56,1.47,0.20300000000000007
5b376f54cf5e6a00018309ef,native,NA,Spain,si,NA,NA,NA,andalusian_mismatch_interrogative-partial-wh_Por-que-venia-del-lago.wav,chilean,mismatch,interrogative-partial-wh,Por que venia del lago,1,1,1,1.441,57,1.33,0.11099999999999999
5b376f54cf5e6a00018309ef,native,NA,Spain,si,NA,NA,NA,andalusian_mismatch_interrogative-total-yn_El-nino-oye-el-rio.wav,castilian,mismatch,interrogative-total-yn,El nino oye el rio,1,1,1,1.591,58,1.46,0.131
5b376f54cf5e6a00018309ef,native,NA,Spain,si,NA,NA,NA,andalusian_match_declarative-narrow-focus_Ana-lleva-el-abrigo.wav,argentine,match,declarative-narrow-focus,Ana lleva el abrigo,0,0,1,1.923,59,1.16,0.7630000000000001
5b376f54cf5e6a00018309ef,native,NA,Spain,si,NA,NA,NA,andalusian_mismatch_interrogative-partial-wh_Por-que-desayuna-muy-bien.wav,castilian,mismatch,interrogative-partial-wh,Por que desayuna muy bien,1,1,1,2.208,60,1.52,0.6880000000000002
5b376f54cf5e6a00018309ef,native,NA,Spain,si,NA,NA,NA,andalusian_match_interrogative-partial-wh_Cuando-lleva-el-abrigo.wav,peruvian,match,interrogative-partial-wh,Cuando lleva el abrigo,1,1,1,2.301,61,1.39,0.9110000000000003
5b376f54cf5e6a00018309ef,native,NA,Spain,si,NA,NA,NA,andalusian_mismatch_declarative-broad-focus_El-bebe-comia-muy-bien.wav,puertorican,mismatch,declarative-broad-focus,El bebe comia muy bien,0,0,1,1.471,62,1.19,0.28100000000000014
5b376f54cf5e6a00018309ef,native,NA,Spain,si,NA,NA,NA,andalusian_match_declarative-narrow-focus_Daniel-iba-a-Bolivia.wav,chilean,match,declarative-narrow-focus,Daniel iba a Bolivia,0,0,1,2.343,63,0.92,1.423
5b90593873103d0001078b55,native,NA,Mexico,si,NA,NA,NA,andalusian_mismatch_interrogative-partial-wh_Por-que-odiaba-la-lluvia.wav,castilian,mismatch,interrogative-partial-wh,Por que odiaba la lluvia,1,1,1,1.877305,0,1.55,0.32730499999999996
5b90593873103d0001078b55,native,NA,Mexico,si,NA,NA,NA,andalusian_mismatch_interrogative-partial-wh_Cuando-comia-la-fruta.wav,andalusian,mismatch,interrogative-partial-wh,Cuando comia la fruta,1,1,1,1.447575,1,1.45,-0.0024249999999998995
5b90593873103d0001078b55,native,NA,Mexico,si,NA,NA,NA,andalusian_mismatch_interrogative-partial-wh_Cuando-miraba-la-luna.wav,puertorican,mismatch,interrogative-partial-wh,Cuando miraba la luna,1,1,1,1.76304,2,1.1,0.6630399999999999
5b90593873103d0001078b55,native,NA,Mexico,si,NA,NA,NA,andalusian_mismatch_declarative-broad-focus_El-hombre-mira-la-luna.wav,castilian,mismatch,declarative-broad-focus,El hombre mira la luna,0,0,1,1.69338,3,1.37,0.32338
5b90593873103d0001078b55,native,NA,Mexico,si,NA,NA,NA,andalusian_match_declarative-narrow-focus_Emilio-ama-la-marcha.wav,puertorican,match,declarative-narrow-focus,Emilio ama la marcha,0,0,1,1.529195,4,1.21,0.3191950000000001
5b90593873103d0001078b55,native,NA,Mexico,si,NA,NA,NA,andalusian_match_interrogative-total-yn_Manuela-vende-el-carro.wav,chilean,match,interrogative-total-yn,Manuela vende el carro,1,1,1,1.592775,5,1.29,0.302775
5b90593873103d0001078b55,native,NA,Mexico,si,NA,NA,NA,andalusian_match_declarative-broad-focus_Mariano-habla-del-tiempo.wav,cuban,match,declarative-broad-focus,Mariano habla del tiempo,0,0,1,1.756715,6,1.46,0.29671500000000006
5b90593873103d0001078b55,native,NA,Mexico,si,NA,NA,NA,andalusian_mismatch_declarative-narrow-focus_El-bebe-comia-muy-bien.wav,peruvian,mismatch,declarative-narrow-focus,El bebe comia muy bien,0,0,1,1.85147,7,1.67,0.18147000000000002
5b90593873103d0001078b55,native,NA,Mexico,si,NA,NA,NA,andalusian_match_declarative-narrow-focus_Ana-lleva-el-abrigo.wav,cuban,match,declarative-narrow-focus,Ana lleva el abrigo,0,0,1,1.755045,8,1.08,0.6750449999999999
5b90593873103d0001078b55,native,NA,Mexico,si,NA,NA,NA,andalusian_match_interrogative-total-yn_Marta-abre-el-regalo.wav,mexican,match,interrogative-total-yn,Marta abre el regalo,1,1,1,1.6482,9,1.15,0.4982000000000002
5b90593873103d0001078b55,native,NA,Mexico,si,NA,NA,NA,andalusian_mismatch_declarative-narrow-focus_El-nino-oye-el-rio.wav,andalusian,mismatch,declarative-narrow-focus,El nino oye el rio,0,0,1,1.91653,10,1.26,0.6565300000000001
5b90593873103d0001078b55,native,NA,Mexico,si,NA,NA,NA,andalusian_match_interrogative-total-yn_Ana-lleva-el-abrigo.wav,cuban,match,interrogative-total-yn,Ana lleva el abrigo,1,0,0,1.372405,11,1.13,0.2424050000000002
5b90593873103d0001078b55,native,NA,Mexico,si,NA,NA,NA,andalusian_match_declarative-broad-focus_David-leia-el-libro.wav,peruvian,match,declarative-broad-focus,David leia el libro,0,0,1,1.648925,12,1.43,0.21892500000000004
5b90593873103d0001078b55,native,NA,Mexico,si,NA,NA,NA,andalusian_mismatch_declarative-broad-focus_La-nina-lava-el-plato.wav,castilian,mismatch,declarative-broad-focus,La nina lava el plato,0,0,1,1.795025,13,1.47,0.3250250000000001
5b90593873103d0001078b55,native,NA,Mexico,si,NA,NA,NA,andalusian_mismatch_declarative-broad-focus_Mi-tia-odia-la-lluvia.wav,chilean,mismatch,declarative-broad-focus,Mi tia odia la lluvia,0,0,1,1.548175,14,1.34,0.208175
5b90593873103d0001078b55,native,NA,Mexico,si,NA,NA,NA,andalusian_match_declarative-narrow-focus_Mariano-habla-del-tiempo.wav,cuban,match,declarative-narrow-focus,Mariano habla del tiempo,0,0,1,1.510785,15,1.24,0.27078500000000005
5b90593873103d0001078b55,native,NA,Mexico,si,NA,NA,NA,andalusian_match_declarative-broad-focus_Manuela-vende-el-carro.wav,peruvian,match,declarative-broad-focus,Manuela vende el carro,0,0,1,2.004975,16,1.52,0.48497499999999993
5b90593873103d0001078b55,native,NA,Mexico,si,NA,NA,NA,andalusian_match_interrogative-partial-wh_Cuando-lleva-el-abrigo.wav,mexican,match,interrogative-partial-wh,Cuando lleva el abrigo,1,1,1,1.393985,17,1.16,0.2339850000000001
5b90593873103d0001078b55,native,NA,Mexico,si,NA,NA,NA,andalusian_match_declarative-broad-focus_Marta-abre-el-regalo.wav,argentine,match,declarative-broad-focus,Marta abre el regalo,0,0,1,1.895775,18,1.36,0.5357749999999999
5b90593873103d0001078b55,native,NA,Mexico,si,NA,NA,NA,andalusian_match_interrogative-total-yn_David-leia-el-libro.wav,castilian,match,interrogative-total-yn,David leia el libro,1,1,1,1.56436,19,1.43,0.13436000000000003
5b90593873103d0001078b55,native,NA,Mexico,si,NA,NA,NA,andalusian_match_interrogative-partial-wh_Cuando-vendia-el-carro.wav,andalusian,match,interrogative-partial-wh,Cuando vendia el carro,1,0,0,1.500665,20,1.3,0.20066499999999987
5b90593873103d0001078b55,native,NA,Mexico,si,NA,NA,NA,andalusian_match_declarative-narrow-focus_Marta-abre-el-regalo.wav,andalusian,match,declarative-narrow-focus,Marta abre el regalo,0,0,1,1.55635,21,1.45,0.10634999999999994
5b90593873103d0001078b55,native,NA,Mexico,si,NA,NA,NA,andalusian_match_interrogative-partial-wh_Por-que-hablaba-del-agua.wav,andalusian,match,interrogative-partial-wh,Por que hablaba del agua,1,0,0,1.475945,22,1.27,0.20594500000000004
5b90593873103d0001078b55,native,NA,Mexico,si,NA,NA,NA,andalusian_match_declarative-broad-focus_Daniel-iba-a-Bolivia.wav,puertorican,match,declarative-broad-focus,Daniel iba a Bolivia,0,0,1,1.847095,23,1.2,0.647095
5b90593873103d0001078b55,native,NA,Mexico,si,NA,NA,NA,andalusian_mismatch_interrogative-total-yn_La-maestra-vive-en-Paris.wav,castilian,mismatch,interrogative-total-yn,La maestra vive en Paris,1,1,1,1.84535,24,1.76,0.08535000000000004
5b90593873103d0001078b55,native,NA,Mexico,si,NA,NA,NA,andalusian_match_declarative-broad-focus_Ana-lleva-el-abrigo.wav,chilean,match,declarative-broad-focus,Ana lleva el abrigo,0,0,1,1.280525,25,1.1,0.18052499999999982
5b90593873103d0001078b55,native,NA,Mexico,si,NA,NA,NA,andalusian_match_interrogative-partial-wh_Por-que-ama-la-navidad.wav,mexican,match,interrogative-partial-wh,Por que ama la navidad,1,1,1,1.56294,26,1.19,0.37294000000000005
5b90593873103d0001078b55,native,NA,Mexico,si,NA,NA,NA,andalusian_mismatch_interrogative-total-yn_El-nino-oye-el-rio.wav,mexican,mismatch,interrogative-total-yn,El nino oye el rio,1,1,1,1.39344,27,1.15,0.2434400000000001
5b90593873103d0001078b55,native,NA,Mexico,si,NA,NA,NA,andalusian_match_declarative-narrow-focus_David-leia-el-libro.wav,castilian,match,declarative-narrow-focus,David leia el libro,0,0,1,1.6626,28,1.34,0.3226
5b90593873103d0001078b55,native,NA,Mexico,si,NA,NA,NA,andalusian_mismatch_interrogative-total-yn_El-bebe-comia-muy-bien.wav,peruvian,mismatch,interrogative-total-yn,El bebe comia muy bien,1,1,1,2.073005,29,1.68,0.39300500000000027
5b90593873103d0001078b55,native,NA,Mexico,si,NA,NA,NA,andalusian_match_declarative-narrow-focus_Manuela-vende-el-carro.wav,peruvian,match,declarative-narrow-focus,Manuela vende el carro,0,0,1,1.83203,30,1.55,0.28203
5b90593873103d0001078b55,native,NA,Mexico,si,NA,NA,NA,andalusian_mismatch_declarative-narrow-focus_Mi-madre-come-la-fruta.wav,mexican,mismatch,declarative-narrow-focus,Mi madre come la fruta,0,0,1,1.675455,31,1.27,0.4054549999999999
5b90593873103d0001078b55,native,NA,Mexico,si,NA,NA,NA,andalusian_mismatch_interrogative-total-yn_La-nina-lava-el-plato.wav,argentine,mismatch,interrogative-total-yn,La nina lava el plato,1,1,1,1.97615,32,1.39,0.5861500000000002
5b90593873103d0001078b55,native,NA,Mexico,si,NA,NA,NA,andalusian_mismatch_declarative-broad-focus_El-nino-oye-el-rio.wav,argentine,mismatch,declarative-broad-focus,El nino oye el rio,0,0,1,1.76831,33,1.56,0.20831
5b90593873103d0001078b55,native,NA,Mexico,si,NA,NA,NA,andalusian_match_declarative-broad-focus_Maria-bebe-el-vino.wav,peruvian,match,declarative-broad-focus,Maria bebe el vino,0,0,1,1.81886,34,1.36,0.4588599999999998
5b90593873103d0001078b55,native,NA,Mexico,si,NA,NA,NA,andalusian_mismatch_declarative-broad-focus_Mi-madre-come-la-fruta.wav,andalusian,mismatch,declarative-broad-focus,Mi madre come la fruta,0,0,1,1.60996,35,1.31,0.29996
5b90593873103d0001078b55,native,NA,Mexico,si,NA,NA,NA,andalusian_mismatch_declarative-narrow-focus_El-hombre-mira-la-luna.wav,andalusian,mismatch,declarative-narrow-focus,El hombre mira la luna,0,0,1,1.509495,36,1.33,0.17949499999999996
5b90593873103d0001078b55,native,NA,Mexico,si,NA,NA,NA,andalusian_match_interrogative-total-yn_Emilio-ama-la-marcha.wav,argentine,match,interrogative-total-yn,Emilio ama la marcha,1,1,1,1.795915,37,1.58,0.21591499999999986
5b90593873103d0001078b55,native,NA,Mexico,si,NA,NA,NA,andalusian_match_interrogative-total-yn_Daniel-iba-a-Bolivia.wav,andalusian,match,interrogative-total-yn,Daniel iba a Bolivia,1,0,0,2.304755,38,1.34,0.964755
5b90593873103d0001078b55,native,NA,Mexico,si,NA,NA,NA,andalusian_mismatch_interrogative-total-yn_Mi-novio-viene-del-lago.wav,puertorican,mismatch,interrogative-total-yn,Mi novio viene del lago,1,0,0,1.689965,39,1.26,0.42996499999999993
5b90593873103d0001078b55,native,NA,Mexico,si,NA,NA,NA,andalusian_match_declarative-narrow-focus_Daniel-iba-a-Bolivia.wav,peruvian,match,declarative-narrow-focus,Daniel iba a Bolivia,0,0,1,1.693285,40,1.33,0.36328499999999986
5b90593873103d0001078b55,native,NA,Mexico,si,NA,NA,NA,andalusian_mismatch_declarative-narrow-focus_La-maestra-vive-en-Paris.wav,chilean,mismatch,declarative-narrow-focus,La maestra vive en Paris,0,0,1,1.88681,41,1.33,0.55681
5b90593873103d0001078b55,native,NA,Mexico,si,NA,NA,NA,andalusian_mismatch_declarative-narrow-focus_La-nina-lava-el-plato.wav,castilian,mismatch,declarative-narrow-focus,La nina lava el plato,0,0,1,1.52766,42,1.34,0.18765999999999994
5b90593873103d0001078b55,native,NA,Mexico,si,NA,NA,NA,andalusian_mismatch_interrogative-partial-wh_Cuando-lavaba-el-plato.wav,cuban,mismatch,interrogative-partial-wh,Cuando lavaba el plato,1,1,1,1.840095,43,1.22,0.6200950000000001
5b90593873103d0001078b55,native,NA,Mexico,si,NA,NA,NA,andalusian_mismatch_declarative-broad-focus_Mi-novio-viene-del-lago.wav,peruvian,mismatch,declarative-broad-focus,Mi novio viene del lago,0,0,1,2.466285,44,1.63,0.8362850000000002
5b90593873103d0001078b55,native,NA,Mexico,si,NA,NA,NA,andalusian_match_interrogative-total-yn_Maria-bebe-el-vino.wav,puertorican,match,interrogative-total-yn,Maria bebe el vino,1,1,1,1.7275,45,1,0.7275
5b90593873103d0001078b55,native,NA,Mexico,si,NA,NA,NA,andalusian_mismatch_interrogative-total-yn_Mi-madre-come-la-fruta.wav,chilean,mismatch,interrogative-total-yn,Mi madre come la fruta,1,1,1,1.67922,46,1.29,0.3892199999999999
5b90593873103d0001078b55,native,NA,Mexico,si,NA,NA,NA,andalusian_match_interrogative-partial-wh_Cuando-leia-el-libro.wav,cuban,match,interrogative-partial-wh,Cuando leia el libro,1,0,0,1.72729,47,1.18,0.54729
5b90593873103d0001078b55,native,NA,Mexico,si,NA,NA,NA,andalusian_match_interrogative-total-yn_Mariano-habla-del-tiempo.wav,castilian,match,interrogative-total-yn,Mariano habla del tiempo,1,1,1,2.30338,48,1.58,0.7233800000000001
5b90593873103d0001078b55,native,NA,Mexico,si,NA,NA,NA,andalusian_mismatch_declarative-broad-focus_La-maestra-vive-en-Paris.wav,argentine,mismatch,declarative-broad-focus,La maestra vive en Paris,0,0,1,2.39703,49,1.43,0.9670300000000001
5b90593873103d0001078b55,native,NA,Mexico,si,NA,NA,NA,andalusian_mismatch_declarative-broad-focus_El-bebe-comia-muy-bien.wav,puertorican,mismatch,declarative-broad-focus,El bebe comia muy bien,0,0,1,1.84701,50,1.19,0.6570100000000001
5b90593873103d0001078b55,native,NA,Mexico,si,NA,NA,NA,andalusian_mismatch_interrogative-total-yn_Mi-tia-odia-la-lluvia.wav,mexican,mismatch,interrogative-total-yn,Mi tia odia la lluvia,1,1,1,2.009315,51,1.19,0.819315
5b90593873103d0001078b55,native,NA,Mexico,si,NA,NA,NA,andalusian_match_interrogative-partial-wh_Por-que-iba-a-Bolivia.wav,peruvian,match,interrogative-partial-wh,Por que iba a Bolivia,1,1,1,1.80251,52,1.29,0.51251
5b90593873103d0001078b55,native,NA,Mexico,si,NA,NA,NA,andalusian_mismatch_interrogative-total-yn_El-hombre-mira-la-luna.wav,peruvian,mismatch,interrogative-total-yn,El hombre mira la luna,1,1,1,2.05441,53,1.45,0.6044099999999999
5b90593873103d0001078b55,native,NA,Mexico,si,NA,NA,NA,andalusian_match_declarative-narrow-focus_Maria-bebe-el-vino.wav,mexican,match,declarative-narrow-focus,Maria bebe el vino,0,0,1,1.84855,54,1.08,0.7685499999999998
5b90593873103d0001078b55,native,NA,Mexico,si,NA,NA,NA,andalusian_mismatch_interrogative-partial-wh_Por-que-venia-del-lago.wav,chilean,mismatch,interrogative-partial-wh,Por que venia del lago,1,1,1,1.592015,55,1.33,0.2620149999999999
5b90593873103d0001078b55,native,NA,Mexico,si,NA,NA,NA,andalusian_mismatch_interrogative-partial-wh_Por-que-desayuna-muy-bien.wav,peruvian,mismatch,interrogative-partial-wh,Por que desayuna muy bien,1,0,0,2.48517,56,1.74,0.7451700000000001
5b90593873103d0001078b55,native,NA,Mexico,si,NA,NA,NA,andalusian_match_interrogative-partial-wh_Por-que-abre-el-regalo.wav,chilean,match,interrogative-partial-wh,Por que abre el regalo,1,1,1,1.79501,57,1.28,0.51501
5b90593873103d0001078b55,native,NA,Mexico,si,NA,NA,NA,andalusian_mismatch_interrogative-partial-wh_Por-que-oia-el-rio.wav,mexican,mismatch,interrogative-partial-wh,Por que oia el rio,1,1,1,1.273985,58,1.08,0.19398499999999985
5b90593873103d0001078b55,native,NA,Mexico,si,NA,NA,NA,andalusian_mismatch_declarative-narrow-focus_Mi-tia-odia-la-lluvia.wav,argentine,mismatch,declarative-narrow-focus,Mi tia odia la lluvia,0,0,1,1.672895,59,1.28,0.392895
5b90593873103d0001078b55,native,NA,Mexico,si,NA,NA,NA,andalusian_match_interrogative-partial-wh_Cuando-bebia-el-vino.wav,peruvian,match,interrogative-partial-wh,Cuando bebia el vino,1,1,1,1.1196,60,1.37,-0.2504000000000002
5b90593873103d0001078b55,native,NA,Mexico,si,NA,NA,NA,andalusian_mismatch_interrogative-partial-wh_Por-que-vivia-en-Paris.wav,chilean,mismatch,interrogative-partial-wh,Por que vivia en Paris,1,1,1,1.667,61,1.38,0.28700000000000014
5b90593873103d0001078b55,native,NA,Mexico,si,NA,NA,NA,andalusian_mismatch_declarative-narrow-focus_Mi-novio-viene-del-lago.wav,cuban,mismatch,declarative-narrow-focus,Mi novio viene del lago,0,0,1,1.668385,62,1.32,0.34838499999999994
5b90593873103d0001078b55,native,NA,Mexico,si,NA,NA,NA,andalusian_match_declarative-broad-focus_Emilio-ama-la-marcha.wav,cuban,match,declarative-broad-focus,Emilio ama la marcha,0,0,1,1.687015,63,1.23,0.45701499999999995
5c43c8943526c80001fca34f,native,NA,Mexico,no,NA,NA,NA,andalusian_mismatch_interrogative-partial-wh_Cuando-lavaba-el-plato.wav,cuban,mismatch,interrogative-partial-wh,Cuando lavaba el plato,1,1,1,3.267425,0,1.22,2.0474249999999996
5c43c8943526c80001fca34f,native,NA,Mexico,no,NA,NA,NA,andalusian_match_declarative-broad-focus_Daniel-iba-a-Bolivia.wav,chilean,match,declarative-broad-focus,Daniel iba a Bolivia,0,0,1,1.86837,1,1.1,0.76837
5c43c8943526c80001fca34f,native,NA,Mexico,no,NA,NA,NA,andalusian_match_declarative-narrow-focus_Manuela-vende-el-carro.wav,cuban,match,declarative-narrow-focus,Manuela vende el carro,0,0,1,1.73848,2,1.38,0.35848000000000013
5c43c8943526c80001fca34f,native,NA,Mexico,no,NA,NA,NA,andalusian_match_interrogative-total-yn_Manuela-vende-el-carro.wav,castilian,match,interrogative-total-yn,Manuela vende el carro,1,1,1,1.954335,3,1.49,0.46433499999999994
5c43c8943526c80001fca34f,native,NA,Mexico,no,NA,NA,NA,andalusian_match_declarative-broad-focus_Emilio-ama-la-marcha.wav,mexican,match,declarative-broad-focus,Emilio ama la marcha,0,0,1,1.63462,4,1.28,0.35461999999999994
5c43c8943526c80001fca34f,native,NA,Mexico,no,NA,NA,NA,andalusian_match_declarative-broad-focus_Marta-abre-el-regalo.wav,peruvian,match,declarative-broad-focus,Marta abre el regalo,0,0,1,1.833975,5,1.46,0.37397499999999995
5c43c8943526c80001fca34f,native,NA,Mexico,no,NA,NA,NA,andalusian_match_declarative-narrow-focus_David-leia-el-libro.wav,andalusian,match,declarative-narrow-focus,David leia el libro,0,0,1,2.218355,6,1.45,0.7683549999999999
5c43c8943526c80001fca34f,native,NA,Mexico,no,NA,NA,NA,andalusian_mismatch_declarative-broad-focus_El-nino-oye-el-rio.wav,cuban,mismatch,declarative-broad-focus,El nino oye el rio,0,0,1,1.83358,7,1.39,0.4435800000000001
5c43c8943526c80001fca34f,native,NA,Mexico,no,NA,NA,NA,andalusian_mismatch_interrogative-total-yn_El-bebe-comia-muy-bien.wav,andalusian,mismatch,interrogative-total-yn,El bebe comia muy bien,1,0,0,2.42376,8,1.33,1.09376
5c43c8943526c80001fca34f,native,NA,Mexico,no,NA,NA,NA,andalusian_mismatch_interrogative-partial-wh_Por-que-desayuna-muy-bien.wav,puertorican,mismatch,interrogative-partial-wh,Por que desayuna muy bien,1,0,0,2.282615,9,1.26,1.0226149999999998
5c43c8943526c80001fca34f,native,NA,Mexico,no,NA,NA,NA,andalusian_match_interrogative-total-yn_Ana-lleva-el-abrigo.wav,castilian,match,interrogative-total-yn,Ana lleva el abrigo,1,1,1,1.70127,10,1.27,0.43127000000000004
5c43c8943526c80001fca34f,native,NA,Mexico,no,NA,NA,NA,andalusian_mismatch_interrogative-partial-wh_Por-que-odiaba-la-lluvia.wav,mexican,mismatch,interrogative-partial-wh,Por que odiaba la lluvia,1,1,1,1.95118,11,1.17,0.78118
5c43c8943526c80001fca34f,native,NA,Mexico,no,NA,NA,NA,andalusian_mismatch_declarative-narrow-focus_La-maestra-vive-en-Paris.wav,cuban,mismatch,declarative-narrow-focus,La maestra vive en Paris,0,0,1,1.36665,12,1.21,0.15664999999999996
5c43c8943526c80001fca34f,native,NA,Mexico,no,NA,NA,NA,andalusian_mismatch_declarative-broad-focus_El-bebe-comia-muy-bien.wav,argentine,mismatch,declarative-broad-focus,El bebe comia muy bien,0,0,1,1.644695,13,1.51,0.134695
5c43c8943526c80001fca34f,native,NA,Mexico,no,NA,NA,NA,andalusian_mismatch_interrogative-total-yn_La-maestra-vive-en-Paris.wav,puertorican,mismatch,interrogative-total-yn,La maestra vive en Paris,1,1,1,2.633055,14,1.31,1.323055
5c43c8943526c80001fca34f,native,NA,Mexico,no,NA,NA,NA,andalusian_match_interrogative-total-yn_Maria-bebe-el-vino.wav,chilean,match,interrogative-total-yn,Maria bebe el vino,1,1,1,3.232405,15,1.2,2.032405
5c43c8943526c80001fca34f,native,NA,Mexico,no,NA,NA,NA,andalusian_mismatch_declarative-narrow-focus_Mi-novio-viene-del-lago.wav,chilean,mismatch,declarative-narrow-focus,Mi novio viene del lago,0,0,1,1.83183,16,1.37,0.46182999999999996
5c43c8943526c80001fca34f,native,NA,Mexico,no,NA,NA,NA,andalusian_match_declarative-narrow-focus_Ana-lleva-el-abrigo.wav,andalusian,match,declarative-narrow-focus,Ana lleva el abrigo,0,0,1,1.956685,17,1.29,0.666685
5c43c8943526c80001fca34f,native,NA,Mexico,no,NA,NA,NA,andalusian_mismatch_declarative-broad-focus_Mi-novio-viene-del-lago.wav,peruvian,mismatch,declarative-broad-focus,Mi novio viene del lago,0,0,1,1.95202,18,1.63,0.3220200000000002
5c43c8943526c80001fca34f,native,NA,Mexico,no,NA,NA,NA,andalusian_match_interrogative-partial-wh_Por-que-ama-la-navidad.wav,mexican,match,interrogative-partial-wh,Por que ama la navidad,1,1,1,2.76928,19,1.19,1.5792800000000002
5c43c8943526c80001fca34f,native,NA,Mexico,no,NA,NA,NA,andalusian_mismatch_declarative-narrow-focus_El-nino-oye-el-rio.wav,peruvian,mismatch,declarative-narrow-focus,El nino oye el rio,0,0,1,2.45717,20,1.57,0.88717
5c43c8943526c80001fca34f,native,NA,Mexico,no,NA,NA,NA,andalusian_mismatch_interrogative-partial-wh_Cuando-miraba-la-luna.wav,chilean,mismatch,interrogative-partial-wh,Cuando miraba la luna,1,1,1,2.40115,21,1.25,1.15115
5c43c8943526c80001fca34f,native,NA,Mexico,no,NA,NA,NA,andalusian_mismatch_interrogative-partial-wh_Cuando-comia-la-fruta.wav,cuban,mismatch,interrogative-partial-wh,Cuando comia la fruta,1,1,1,1.172655,22,1.03,0.14265499999999998
5c43c8943526c80001fca34f,native,NA,Mexico,no,NA,NA,NA,andalusian_mismatch_declarative-narrow-focus_El-hombre-mira-la-luna.wav,cuban,mismatch,declarative-narrow-focus,El hombre mira la luna,0,0,1,1.6182,23,1.22,0.3982000000000001
5c43c8943526c80001fca34f,native,NA,Mexico,no,NA,NA,NA,andalusian_mismatch_declarative-broad-focus_Mi-madre-come-la-fruta.wav,castilian,mismatch,declarative-broad-focus,Mi madre come la fruta,0,0,1,1.573235,24,1.49,0.08323499999999995
5c43c8943526c80001fca34f,native,NA,Mexico,no,NA,NA,NA,andalusian_mismatch_declarative-narrow-focus_Mi-madre-come-la-fruta.wav,mexican,mismatch,declarative-narrow-focus,Mi madre come la fruta,0,0,1,1.52961,25,1.27,0.2596099999999999
5c43c8943526c80001fca34f,native,NA,Mexico,no,NA,NA,NA,andalusian_match_declarative-narrow-focus_Maria-bebe-el-vino.wav,argentine,match,declarative-narrow-focus,Maria bebe el vino,0,0,1,1.86947,26,1.22,0.64947
5c43c8943526c80001fca34f,native,NA,Mexico,no,NA,NA,NA,andalusian_mismatch_interrogative-partial-wh_Por-que-oia-el-rio.wav,castilian,mismatch,interrogative-partial-wh,Por que oia el rio,1,1,1,1.935905,27,1.36,0.5759049999999999
5c43c8943526c80001fca34f,native,NA,Mexico,no,NA,NA,NA,andalusian_match_declarative-broad-focus_Maria-bebe-el-vino.wav,puertorican,match,declarative-broad-focus,Maria bebe el vino,0,1,0,2.47307,28,1.13,1.34307
5c43c8943526c80001fca34f,native,NA,Mexico,no,NA,NA,NA,andalusian_match_declarative-narrow-focus_Mariano-habla-del-tiempo.wav,peruvian,match,declarative-narrow-focus,Mariano habla del tiempo,0,0,1,1.96792,29,1.6,0.3679199999999998
5c43c8943526c80001fca34f,native,NA,Mexico,no,NA,NA,NA,andalusian_match_declarative-narrow-focus_Marta-abre-el-regalo.wav,andalusian,match,declarative-narrow-focus,Marta abre el regalo,0,0,1,1.836655,30,1.45,0.38665499999999997
5c43c8943526c80001fca34f,native,NA,Mexico,no,NA,NA,NA,andalusian_mismatch_interrogative-total-yn_La-nina-lava-el-plato.wav,castilian,mismatch,interrogative-total-yn,La nina lava el plato,1,1,1,1.71913,31,1.45,0.2691300000000001
5c43c8943526c80001fca34f,native,NA,Mexico,no,NA,NA,NA,andalusian_mismatch_declarative-narrow-focus_Mi-tia-odia-la-lluvia.wav,peruvian,mismatch,declarative-narrow-focus,Mi tia odia la lluvia,0,0,1,1.737195,32,1.61,0.12719499999999995
5c43c8943526c80001fca34f,native,NA,Mexico,no,NA,NA,NA,andalusian_mismatch_interrogative-total-yn_Mi-novio-viene-del-lago.wav,chilean,mismatch,interrogative-total-yn,Mi novio viene del lago,1,1,1,3.071705,33,1.29,1.781705
5c43c8943526c80001fca34f,native,NA,Mexico,no,NA,NA,NA,andalusian_match_interrogative-total-yn_Daniel-iba-a-Bolivia.wav,andalusian,match,interrogative-total-yn,Daniel iba a Bolivia,1,1,1,1.552055,34,1.34,0.21205499999999988
5c43c8943526c80001fca34f,native,NA,Mexico,no,NA,NA,NA,andalusian_match_declarative-narrow-focus_Emilio-ama-la-marcha.wav,castilian,match,declarative-narrow-focus,Emilio ama la marcha,0,0,1,1.61667,35,1.36,0.25666999999999995
5c43c8943526c80001fca34f,native,NA,Mexico,no,NA,NA,NA,andalusian_mismatch_declarative-narrow-focus_La-nina-lava-el-plato.wav,andalusian,mismatch,declarative-narrow-focus,La nina lava el plato,0,0,1,2.98456,36,1.41,1.5745600000000002
5c43c8943526c80001fca34f,native,NA,Mexico,no,NA,NA,NA,andalusian_match_declarative-broad-focus_David-leia-el-libro.wav,argentine,match,declarative-broad-focus,David leia el libro,0,0,1,1.782745,37,1.34,0.44274499999999994
5c43c8943526c80001fca34f,native,NA,Mexico,no,NA,NA,NA,andalusian_mismatch_interrogative-partial-wh_Por-que-vivia-en-Paris.wav,mexican,mismatch,interrogative-partial-wh,Por que vivia en Paris,1,1,1,1.85207,38,1.17,0.6820700000000002
5c43c8943526c80001fca34f,native,NA,Mexico,no,NA,NA,NA,andalusian_match_interrogative-partial-wh_Cuando-bebia-el-vino.wav,cuban,match,interrogative-partial-wh,Cuando bebia el vino,1,0,0,1.921725,39,1.12,0.8017249999999998
5c43c8943526c80001fca34f,native,NA,Mexico,no,NA,NA,NA,andalusian_match_declarative-broad-focus_Mariano-habla-del-tiempo.wav,puertorican,match,declarative-broad-focus,Mariano habla del tiempo,0,0,1,1.61683,40,1.29,0.32682999999999995
5c43c8943526c80001fca34f,native,NA,Mexico,no,NA,NA,NA,andalusian_mismatch_interrogative-total-yn_El-hombre-mira-la-luna.wav,argentine,mismatch,interrogative-total-yn,El hombre mira la luna,1,1,1,1.56763,41,1.2,0.3676300000000001
5c43c8943526c80001fca34f,native,NA,Mexico,no,NA,NA,NA,andalusian_match_interrogative-total-yn_David-leia-el-libro.wav,cuban,match,interrogative-total-yn,David leia el libro,1,0,0,1.668,42,1.32,0.34799999999999986
5c43c8943526c80001fca34f,native,NA,Mexico,no,NA,NA,NA,andalusian_match_interrogative-partial-wh_Cuando-lleva-el-abrigo.wav,puertorican,match,interrogative-partial-wh,Cuando lleva el abrigo,1,1,1,2.26854,43,1.11,1.1585399999999997
5c43c8943526c80001fca34f,native,NA,Mexico,no,NA,NA,NA,andalusian_match_declarative-broad-focus_Manuela-vende-el-carro.wav,peruvian,match,declarative-broad-focus,Manuela vende el carro,0,0,1,2.037395,44,1.52,0.517395
5c43c8943526c80001fca34f,native,NA,Mexico,no,NA,NA,NA,andalusian_mismatch_declarative-broad-focus_La-nina-lava-el-plato.wav,mexican,mismatch,declarative-broad-focus,La nina lava el plato,0,0,1,2.22185,45,1.1,1.1218499999999998
5c43c8943526c80001fca34f,native,NA,Mexico,no,NA,NA,NA,andalusian_mismatch_interrogative-total-yn_Mi-tia-odia-la-lluvia.wav,puertorican,mismatch,interrogative-total-yn,Mi tia odia la lluvia,1,1,1,1.70156,46,1.35,0.3515599999999999
5c43c8943526c80001fca34f,native,NA,Mexico,no,NA,NA,NA,andalusian_mismatch_interrogative-total-yn_El-nino-oye-el-rio.wav,chilean,mismatch,interrogative-total-yn,El nino oye el rio,1,1,1,1.65318,47,1.27,0.3831800000000001
5c43c8943526c80001fca34f,native,NA,Mexico,no,NA,NA,NA,andalusian_match_interrogative-total-yn_Emilio-ama-la-marcha.wav,cuban,match,interrogative-total-yn,Emilio ama la marcha,1,1,1,1.885925,48,1.28,0.605925
5c43c8943526c80001fca34f,native,NA,Mexico,no,NA,NA,NA,andalusian_mismatch_interrogative-partial-wh_Por-que-venia-del-lago.wav,cuban,mismatch,interrogative-partial-wh,Por que venia del lago,1,1,1,2.388865,49,1.04,1.348865
5c43c8943526c80001fca34f,native,NA,Mexico,no,NA,NA,NA,andalusian_mismatch_declarative-broad-focus_El-hombre-mira-la-luna.wav,argentine,mismatch,declarative-broad-focus,El hombre mira la luna,0,0,1,1.43979,50,1.18,0.25978999999999997
5c43c8943526c80001fca34f,native,NA,Mexico,no,NA,NA,NA,andalusian_mismatch_declarative-broad-focus_Mi-tia-odia-la-lluvia.wav,castilian,mismatch,declarative-broad-focus,Mi tia odia la lluvia,0,0,1,1.68388,51,1.3,0.38388
5c43c8943526c80001fca34f,native,NA,Mexico,no,NA,NA,NA,andalusian_match_interrogative-partial-wh_Por-que-iba-a-Bolivia.wav,cuban,match,interrogative-partial-wh,Por que iba a Bolivia,1,1,1,1.285535,52,1.2,0.08553500000000014
5c43c8943526c80001fca34f,native,NA,Mexico,no,NA,NA,NA,andalusian_match_declarative-broad-focus_Ana-lleva-el-abrigo.wav,chilean,match,declarative-broad-focus,Ana lleva el abrigo,0,0,1,1.66834,53,1.1,0.5683399999999998
5c43c8943526c80001fca34f,native,NA,Mexico,no,NA,NA,NA,andalusian_mismatch_declarative-broad-focus_La-maestra-vive-en-Paris.wav,andalusian,mismatch,declarative-broad-focus,La maestra vive en Paris,0,0,1,1.834545,54,1.44,0.39454500000000015
5c43c8943526c80001fca34f,native,NA,Mexico,no,NA,NA,NA,andalusian_match_interrogative-total-yn_Marta-abre-el-regalo.wav,mexican,match,interrogative-total-yn,Marta abre el regalo,1,1,1,1.6715,55,1.15,0.5215000000000001
5c43c8943526c80001fca34f,native,NA,Mexico,no,NA,NA,NA,andalusian_match_interrogative-total-yn_Mariano-habla-del-tiempo.wav,mexican,match,interrogative-total-yn,Mariano habla del tiempo,1,1,1,1.68558,56,1.36,0.32558
5c43c8943526c80001fca34f,native,NA,Mexico,no,NA,NA,NA,andalusian_match_interrogative-partial-wh_Por-que-hablaba-del-agua.wav,peruvian,match,interrogative-partial-wh,Por que hablaba del agua,1,1,1,3.18539,57,1.5,1.68539
5c43c8943526c80001fca34f,native,NA,Mexico,no,NA,NA,NA,andalusian_match_interrogative-partial-wh_Cuando-vendia-el-carro.wav,cuban,match,interrogative-partial-wh,Cuando vendia el carro,1,1,1,2.370895,58,1.16,1.210895
5c43c8943526c80001fca34f,native,NA,Mexico,no,NA,NA,NA,andalusian_match_interrogative-partial-wh_Por-que-abre-el-regalo.wav,castilian,match,interrogative-partial-wh,Por que abre el regalo,1,1,1,1.90403,59,1.39,0.51403
5c43c8943526c80001fca34f,native,NA,Mexico,no,NA,NA,NA,andalusian_match_interrogative-partial-wh_Cuando-leia-el-libro.wav,mexican,match,interrogative-partial-wh,Cuando leia el libro,1,1,1,1.909105,60,1.03,0.879105
5c43c8943526c80001fca34f,native,NA,Mexico,no,NA,NA,NA,andalusian_mismatch_declarative-narrow-focus_El-bebe-comia-muy-bien.wav,peruvian,mismatch,declarative-narrow-focus,El bebe comia muy bien,0,0,1,1.78671,61,1.67,0.11671000000000009
5c43c8943526c80001fca34f,native,NA,Mexico,no,NA,NA,NA,andalusian_match_declarative-narrow-focus_Daniel-iba-a-Bolivia.wav,chilean,match,declarative-narrow-focus,Daniel iba a Bolivia,0,0,1,1.232865,62,0.92,0.31286500000000006
5c43c8943526c80001fca34f,native,NA,Mexico,no,NA,NA,NA,andalusian_mismatch_interrogative-total-yn_Mi-madre-come-la-fruta.wav,puertorican,mismatch,interrogative-total-yn,Mi madre come la fruta,1,0,0,1.848545,63,1.25,0.5985450000000001
5c590c5ea3ad9d00014de9c3,native,NA,Mexico,si,NA,NA,NA,andalusian_mismatch_declarative-broad-focus_Mi-madre-come-la-fruta.wav,argentine,mismatch,declarative-broad-focus,Mi madre come la fruta,0,0,1,1.846655,0,1.52,0.3266549999999999
5c590c5ea3ad9d00014de9c3,native,NA,Mexico,si,NA,NA,NA,andalusian_mismatch_interrogative-partial-wh_Por-que-vivia-en-Paris.wav,peruvian,mismatch,interrogative-partial-wh,Por que vivia en Paris,1,1,1,2.186075,1,1.55,0.6360750000000002
5c590c5ea3ad9d00014de9c3,native,NA,Mexico,si,NA,NA,NA,andalusian_match_interrogative-total-yn_David-leia-el-libro.wav,castilian,match,interrogative-total-yn,David leia el libro,1,1,1,2.891755,2,1.43,1.461755
5c590c5ea3ad9d00014de9c3,native,NA,Mexico,si,NA,NA,NA,andalusian_mismatch_interrogative-total-yn_La-maestra-vive-en-Paris.wav,puertorican,mismatch,interrogative-total-yn,La maestra vive en Paris,1,1,1,2.430645,3,1.31,1.1206450000000001
5c590c5ea3ad9d00014de9c3,native,NA,Mexico,si,NA,NA,NA,andalusian_mismatch_declarative-narrow-focus_El-hombre-mira-la-luna.wav,cuban,mismatch,declarative-narrow-focus,El hombre mira la luna,0,0,1,1.93661,4,1.22,0.71661
5c590c5ea3ad9d00014de9c3,native,NA,Mexico,si,NA,NA,NA,andalusian_mismatch_interrogative-partial-wh_Por-que-oia-el-rio.wav,chilean,mismatch,interrogative-partial-wh,Por que oia el rio,1,1,1,5.1356,5,1.42,3.7156000000000002
5c590c5ea3ad9d00014de9c3,native,NA,Mexico,si,NA,NA,NA,andalusian_mismatch_declarative-broad-focus_El-bebe-comia-muy-bien.wav,mexican,mismatch,declarative-broad-focus,El bebe comia muy bien,0,0,1,3.580725,6,1.19,2.390725
5c590c5ea3ad9d00014de9c3,native,NA,Mexico,si,NA,NA,NA,andalusian_mismatch_interrogative-total-yn_Mi-madre-come-la-fruta.wav,chilean,mismatch,interrogative-total-yn,Mi madre come la fruta,1,1,1,1.990045,7,1.29,0.700045
5c590c5ea3ad9d00014de9c3,native,NA,Mexico,si,NA,NA,NA,andalusian_match_interrogative-partial-wh_Cuando-leia-el-libro.wav,argentine,match,interrogative-partial-wh,Cuando leia el libro,1,1,1,6.18386,8,1.09,5.09386
5c590c5ea3ad9d00014de9c3,native,NA,Mexico,si,NA,NA,NA,andalusian_mismatch_declarative-broad-focus_Mi-tia-odia-la-lluvia.wav,peruvian,mismatch,declarative-broad-focus,Mi tia odia la lluvia,0,0,1,1.798025,9,1.64,0.15802500000000008
5c590c5ea3ad9d00014de9c3,native,NA,Mexico,si,NA,NA,NA,andalusian_mismatch_interrogative-total-yn_La-nina-lava-el-plato.wav,andalusian,mismatch,interrogative-total-yn,La nina lava el plato,1,1,1,1.491385,10,1.41,0.08138500000000004
5c590c5ea3ad9d00014de9c3,native,NA,Mexico,si,NA,NA,NA,andalusian_mismatch_declarative-narrow-focus_Mi-tia-odia-la-lluvia.wav,chilean,mismatch,declarative-narrow-focus,Mi tia odia la lluvia,0,0,1,3.85871,11,1.44,2.41871
5c590c5ea3ad9d00014de9c3,native,NA,Mexico,si,NA,NA,NA,andalusian_match_declarative-narrow-focus_David-leia-el-libro.wav,castilian,match,declarative-narrow-focus,David leia el libro,0,0,1,4.49886,12,1.34,3.15886
5c590c5ea3ad9d00014de9c3,native,NA,Mexico,si,NA,NA,NA,andalusian_match_interrogative-partial-wh_Cuando-bebia-el-vino.wav,chilean,match,interrogative-partial-wh,Cuando bebia el vino,1,1,1,2.62978,13,1.24,1.3897799999999998
5c590c5ea3ad9d00014de9c3,native,NA,Mexico,si,NA,NA,NA,andalusian_match_declarative-broad-focus_Manuela-vende-el-carro.wav,cuban,match,declarative-broad-focus,Manuela vende el carro,0,0,1,2.254705,14,1.39,0.8647050000000001
5c590c5ea3ad9d00014de9c3,native,NA,Mexico,si,NA,NA,NA,andalusian_match_declarative-broad-focus_Ana-lleva-el-abrigo.wav,peruvian,match,declarative-broad-focus,Ana lleva el abrigo,0,0,1,2.119135,15,1.33,0.7891349999999999
5c590c5ea3ad9d00014de9c3,native,NA,Mexico,si,NA,NA,NA,andalusian_mismatch_interrogative-partial-wh_Por-que-venia-del-lago.wav,cuban,mismatch,interrogative-partial-wh,Por que venia del lago,1,1,1,2.31008,16,1.04,1.27008
5c590c5ea3ad9d00014de9c3,native,NA,Mexico,si,NA,NA,NA,andalusian_match_declarative-broad-focus_David-leia-el-libro.wav,argentine,match,declarative-broad-focus,David leia el libro,0,0,1,2.069705,17,1.34,0.7297049999999998
5c590c5ea3ad9d00014de9c3,native,NA,Mexico,si,NA,NA,NA,andalusian_match_declarative-narrow-focus_Maria-bebe-el-vino.wav,chilean,match,declarative-narrow-focus,Maria bebe el vino,0,0,1,1.88252,18,0.98,0.90252
5c590c5ea3ad9d00014de9c3,native,NA,Mexico,si,NA,NA,NA,andalusian_match_declarative-broad-focus_Emilio-ama-la-marcha.wav,castilian,match,declarative-broad-focus,Emilio ama la marcha,0,0,1,2.558015,19,1.4,1.1580150000000002
5c590c5ea3ad9d00014de9c3,native,NA,Mexico,si,NA,NA,NA,andalusian_match_declarative-broad-focus_Daniel-iba-a-Bolivia.wav,argentine,match,declarative-broad-focus,Daniel iba a Bolivia,0,0,1,1.6096,20,1.35,0.25959999999999983
5c590c5ea3ad9d00014de9c3,native,NA,Mexico,si,NA,NA,NA,andalusian_match_interrogative-partial-wh_Cuando-lleva-el-abrigo.wav,puertorican,match,interrogative-partial-wh,Cuando lleva el abrigo,1,1,1,1.195125,21,1.11,0.0851249999999999
5c590c5ea3ad9d00014de9c3,native,NA,Mexico,si,NA,NA,NA,andalusian_mismatch_interrogative-partial-wh_Por-que-desayuna-muy-bien.wav,castilian,mismatch,interrogative-partial-wh,Por que desayuna muy bien,1,1,1,0.978055,22,1.52,-0.541945
5c590c5ea3ad9d00014de9c3,native,NA,Mexico,si,NA,NA,NA,andalusian_mismatch_interrogative-partial-wh_Por-que-odiaba-la-lluvia.wav,argentine,mismatch,interrogative-partial-wh,Por que odiaba la lluvia,1,1,1,0.773845,23,1.31,-0.536155
5c590c5ea3ad9d00014de9c3,native,NA,Mexico,si,NA,NA,NA,andalusian_match_interrogative-partial-wh_Por-que-abre-el-regalo.wav,chilean,match,interrogative-partial-wh,Por que abre el regalo,1,1,1,0.64667,24,1.28,-0.6333300000000001
5c590c5ea3ad9d00014de9c3,native,NA,Mexico,si,NA,NA,NA,andalusian_mismatch_declarative-narrow-focus_La-nina-lava-el-plato.wav,puertorican,mismatch,declarative-narrow-focus,La nina lava el plato,0,0,1,1.311425,25,1.14,0.17142500000000016
5c590c5ea3ad9d00014de9c3,native,NA,Mexico,si,NA,NA,NA,andalusian_match_interrogative-total-yn_Mariano-habla-del-tiempo.wav,peruvian,match,interrogative-total-yn,Mariano habla del tiempo,1,1,1,2.094365,26,1.67,0.4243649999999999
5c590c5ea3ad9d00014de9c3,native,NA,Mexico,si,NA,NA,NA,andalusian_mismatch_interrogative-total-yn_El-hombre-mira-la-luna.wav,peruvian,mismatch,interrogative-total-yn,El hombre mira la luna,1,1,1,1.916005,27,1.45,0.466005
5c590c5ea3ad9d00014de9c3,native,NA,Mexico,si,NA,NA,NA,andalusian_mismatch_declarative-broad-focus_Mi-novio-viene-del-lago.wav,puertorican,mismatch,declarative-broad-focus,Mi novio viene del lago,0,0,1,1.69824,28,1.22,0.47824
5c590c5ea3ad9d00014de9c3,native,NA,Mexico,si,NA,NA,NA,andalusian_mismatch_interrogative-partial-wh_Cuando-lavaba-el-plato.wav,argentine,mismatch,interrogative-partial-wh,Cuando lavaba el plato,1,1,1,1.581995,29,1.22,0.36199500000000007
5c590c5ea3ad9d00014de9c3,native,NA,Mexico,si,NA,NA,NA,andalusian_mismatch_interrogative-total-yn_El-bebe-comia-muy-bien.wav,cuban,mismatch,interrogative-total-yn,El bebe comia muy bien,1,1,1,1.67565,30,1.29,0.38565000000000005
5c590c5ea3ad9d00014de9c3,native,NA,Mexico,si,NA,NA,NA,andalusian_match_declarative-broad-focus_Maria-bebe-el-vino.wav,andalusian,match,declarative-broad-focus,Maria bebe el vino,0,0,1,1.90105,31,1.11,0.7910499999999998
5c590c5ea3ad9d00014de9c3,native,NA,Mexico,si,NA,NA,NA,andalusian_match_declarative-broad-focus_Mariano-habla-del-tiempo.wav,puertorican,match,declarative-broad-focus,Mariano habla del tiempo,0,0,1,1.88279,32,1.29,0.5927899999999999
5c590c5ea3ad9d00014de9c3,native,NA,Mexico,si,NA,NA,NA,andalusian_mismatch_interrogative-total-yn_Mi-tia-odia-la-lluvia.wav,castilian,mismatch,interrogative-total-yn,Mi tia odia la lluvia,1,1,1,2.47026,33,1.46,1.0102600000000002
5c590c5ea3ad9d00014de9c3,native,NA,Mexico,si,NA,NA,NA,andalusian_mismatch_declarative-broad-focus_La-maestra-vive-en-Paris.wav,puertorican,mismatch,declarative-broad-focus,La maestra vive en Paris,0,0,1,14.077005,34,1.21,12.867004999999999
5c590c5ea3ad9d00014de9c3,native,NA,Mexico,si,NA,NA,NA,andalusian_match_interrogative-total-yn_Emilio-ama-la-marcha.wav,peruvian,match,interrogative-total-yn,Emilio ama la marcha,1,1,1,7.196785,35,1.5,5.696785
5c590c5ea3ad9d00014de9c3,native,NA,Mexico,si,NA,NA,NA,andalusian_match_declarative-broad-focus_Marta-abre-el-regalo.wav,peruvian,match,declarative-broad-focus,Marta abre el regalo,0,0,1,2.29989,36,1.46,0.83989
5c590c5ea3ad9d00014de9c3,native,NA,Mexico,si,NA,NA,NA,andalusian_match_declarative-narrow-focus_Mariano-habla-del-tiempo.wav,argentine,match,declarative-narrow-focus,Mariano habla del tiempo,0,0,1,2.296095,37,1.45,0.8460950000000003
5c590c5ea3ad9d00014de9c3,native,NA,Mexico,si,NA,NA,NA,andalusian_match_interrogative-partial-wh_Por-que-iba-a-Bolivia.wav,chilean,match,interrogative-partial-wh,Por que iba a Bolivia,1,1,1,1.54241,38,1.03,0.51241
5c590c5ea3ad9d00014de9c3,native,NA,Mexico,si,NA,NA,NA,andalusian_match_interrogative-partial-wh_Por-que-ama-la-navidad.wav,peruvian,match,interrogative-partial-wh,Por que ama la navidad,1,1,1,2.318455,39,1.54,0.7784550000000001
5c590c5ea3ad9d00014de9c3,native,NA,Mexico,si,NA,NA,NA,andalusian_match_interrogative-partial-wh_Cuando-vendia-el-carro.wav,cuban,match,interrogative-partial-wh,Cuando vendia el carro,1,0,0,7.58908,40,1.16,6.42908
5c590c5ea3ad9d00014de9c3,native,NA,Mexico,si,NA,NA,NA,andalusian_mismatch_interrogative-total-yn_El-nino-oye-el-rio.wav,mexican,mismatch,interrogative-total-yn,El nino oye el rio,1,1,1,1.96095,41,1.15,0.8109500000000001
5c590c5ea3ad9d00014de9c3,native,NA,Mexico,si,NA,NA,NA,andalusian_match_declarative-narrow-focus_Manuela-vende-el-carro.wav,cuban,match,declarative-narrow-focus,Manuela vende el carro,0,0,1,1.699205,42,1.38,0.3192050000000002
5c590c5ea3ad9d00014de9c3,native,NA,Mexico,si,NA,NA,NA,andalusian_mismatch_declarative-narrow-focus_Mi-novio-viene-del-lago.wav,andalusian,mismatch,declarative-narrow-focus,Mi novio viene del lago,0,1,0,3.12368,43,1.21,1.9136799999999998
5c590c5ea3ad9d00014de9c3,native,NA,Mexico,si,NA,NA,NA,andalusian_match_declarative-narrow-focus_Marta-abre-el-regalo.wav,puertorican,match,declarative-narrow-focus,Marta abre el regalo,0,0,1,1.81129,44,1.16,0.6512900000000001
5c590c5ea3ad9d00014de9c3,native,NA,Mexico,si,NA,NA,NA,andalusian_mismatch_declarative-broad-focus_El-nino-oye-el-rio.wav,puertorican,mismatch,declarative-broad-focus,El nino oye el rio,0,0,1,2.07799,45,1.14,0.9379899999999999
5c590c5ea3ad9d00014de9c3,native,NA,Mexico,si,NA,NA,NA,andalusian_match_interrogative-partial-wh_Por-que-hablaba-del-agua.wav,castilian,match,interrogative-partial-wh,Por que hablaba del agua,1,1,1,2.067525,46,1.46,0.6075249999999999
5c590c5ea3ad9d00014de9c3,native,NA,Mexico,si,NA,NA,NA,andalusian_mismatch_interrogative-total-yn_Mi-novio-viene-del-lago.wav,chilean,mismatch,interrogative-total-yn,Mi novio viene del lago,1,1,1,1.78418,47,1.29,0.49418000000000006
5c590c5ea3ad9d00014de9c3,native,NA,Mexico,si,NA,NA,NA,andalusian_match_interrogative-total-yn_Marta-abre-el-regalo.wav,puertorican,match,interrogative-total-yn,Marta abre el regalo,1,1,1,1.898555,48,1.15,0.7485550000000001
5c590c5ea3ad9d00014de9c3,native,NA,Mexico,si,NA,NA,NA,andalusian_mismatch_declarative-narrow-focus_Mi-madre-come-la-fruta.wav,andalusian,mismatch,declarative-narrow-focus,Mi madre come la fruta,0,0,1,1.54297,49,1.38,0.16297000000000006
5c590c5ea3ad9d00014de9c3,native,NA,Mexico,si,NA,NA,NA,andalusian_mismatch_declarative-narrow-focus_El-bebe-comia-muy-bien.wav,chilean,mismatch,declarative-narrow-focus,El bebe comia muy bien,0,0,1,1.908925,50,1.29,0.618925
5c590c5ea3ad9d00014de9c3,native,NA,Mexico,si,NA,NA,NA,andalusian_match_declarative-narrow-focus_Ana-lleva-el-abrigo.wav,andalusian,match,declarative-narrow-focus,Ana lleva el abrigo,0,0,1,1.9183,51,1.29,0.6282999999999999
5c590c5ea3ad9d00014de9c3,native,NA,Mexico,si,NA,NA,NA,andalusian_mismatch_declarative-broad-focus_El-hombre-mira-la-luna.wav,peruvian,mismatch,declarative-broad-focus,El hombre mira la luna,0,0,1,1.66414,52,1.35,0.31413999999999986
5c590c5ea3ad9d00014de9c3,native,NA,Mexico,si,NA,NA,NA,andalusian_mismatch_declarative-broad-focus_La-nina-lava-el-plato.wav,chilean,mismatch,declarative-broad-focus,La nina lava el plato,0,0,1,1.41092,53,1.06,0.3509199999999999
5c590c5ea3ad9d00014de9c3,native,NA,Mexico,si,NA,NA,NA,andalusian_mismatch_interrogative-partial-wh_Cuando-comia-la-fruta.wav,mexican,mismatch,interrogative-partial-wh,Cuando comia la fruta,1,1,1,1.36308,54,1.07,0.29308
5c590c5ea3ad9d00014de9c3,native,NA,Mexico,si,NA,NA,NA,andalusian_match_interrogative-total-yn_Manuela-vende-el-carro.wav,puertorican,match,interrogative-total-yn,Manuela vende el carro,1,1,1,1.32506,55,1.16,0.16505999999999998
5c590c5ea3ad9d00014de9c3,native,NA,Mexico,si,NA,NA,NA,andalusian_match_declarative-narrow-focus_Emilio-ama-la-marcha.wav,castilian,match,declarative-narrow-focus,Emilio ama la marcha,0,0,1,2.536875,56,1.36,1.1768750000000001
5c590c5ea3ad9d00014de9c3,native,NA,Mexico,si,NA,NA,NA,andalusian_match_interrogative-total-yn_Daniel-iba-a-Bolivia.wav,cuban,match,interrogative-total-yn,Daniel iba a Bolivia,1,1,1,3.690505,57,1.31,2.380505
5c590c5ea3ad9d00014de9c3,native,NA,Mexico,si,NA,NA,NA,andalusian_mismatch_interrogative-partial-wh_Cuando-miraba-la-luna.wav,cuban,mismatch,interrogative-partial-wh,Cuando miraba la luna,1,0,0,4.782845,58,1.17,3.612845
5c590c5ea3ad9d00014de9c3,native,NA,Mexico,si,NA,NA,NA,andalusian_mismatch_declarative-narrow-focus_La-maestra-vive-en-Paris.wav,puertorican,mismatch,declarative-narrow-focus,La maestra vive en Paris,0,0,1,2.614725,59,1.19,1.424725
5c590c5ea3ad9d00014de9c3,native,NA,Mexico,si,NA,NA,NA,andalusian_match_interrogative-total-yn_Ana-lleva-el-abrigo.wav,andalusian,match,interrogative-total-yn,Ana lleva el abrigo,1,1,1,1.526525,60,1.22,0.30652499999999994
5c590c5ea3ad9d00014de9c3,native,NA,Mexico,si,NA,NA,NA,andalusian_mismatch_declarative-narrow-focus_El-nino-oye-el-rio.wav,puertorican,mismatch,declarative-narrow-focus,El nino oye el rio,0,0,1,4.141465,61,1.11,3.031465
5c590c5ea3ad9d00014de9c3,native,NA,Mexico,si,NA,NA,NA,andalusian_match_interrogative-total-yn_Maria-bebe-el-vino.wav,argentine,match,interrogative-total-yn,Maria bebe el vino,1,1,1,2.14937,62,1.26,0.8893699999999998
5c590c5ea3ad9d00014de9c3,native,NA,Mexico,si,NA,NA,NA,andalusian_match_declarative-narrow-focus_Daniel-iba-a-Bolivia.wav,chilean,match,declarative-narrow-focus,Daniel iba a Bolivia,0,0,1,1.69305,63,0.92,0.7730499999999999
5c60c298af517e0001a00b00,native,NA,Chile,Si,NA,NA,NA,andalusian_match_interrogative-partial-wh_Por-que-hablaba-del-agua.wav,chilean,match,interrogative-partial-wh,Por que hablaba del agua,1,1,1,1.374085,0,1.49,-0.11591499999999999
5c60c298af517e0001a00b00,native,NA,Chile,Si,NA,NA,NA,andalusian_mismatch_declarative-broad-focus_Mi-madre-come-la-fruta.wav,andalusian,mismatch,declarative-broad-focus,Mi madre come la fruta,0,0,1,1.484675,1,1.31,0.1746749999999999
5c60c298af517e0001a00b00,native,NA,Chile,Si,NA,NA,NA,andalusian_mismatch_declarative-broad-focus_El-bebe-comia-muy-bien.wav,mexican,mismatch,declarative-broad-focus,El bebe comia muy bien,0,0,1,1.42651,2,1.19,0.23651
5c60c298af517e0001a00b00,native,NA,Chile,Si,NA,NA,NA,andalusian_match_interrogative-total-yn_Maria-bebe-el-vino.wav,andalusian,match,interrogative-total-yn,Maria bebe el vino,1,1,1,1.272525,3,1.15,0.122525
5c60c298af517e0001a00b00,native,NA,Chile,Si,NA,NA,NA,andalusian_match_interrogative-partial-wh_Cuando-bebia-el-vino.wav,castilian,match,interrogative-partial-wh,Cuando bebia el vino,1,1,1,1.308525,4,1.33,-0.021475000000000133
5c60c298af517e0001a00b00,native,NA,Chile,Si,NA,NA,NA,andalusian_mismatch_declarative-broad-focus_Mi-novio-viene-del-lago.wav,castilian,mismatch,declarative-broad-focus,Mi novio viene del lago,0,0,1,1.527275,5,1.51,0.01727499999999993
5c60c298af517e0001a00b00,native,NA,Chile,Si,NA,NA,NA,andalusian_mismatch_interrogative-partial-wh_Cuando-lavaba-el-plato.wav,argentine,mismatch,interrogative-partial-wh,Cuando lavaba el plato,1,1,1,0.597355,6,1.22,-0.622645
5c60c298af517e0001a00b00,native,NA,Chile,Si,NA,NA,NA,andalusian_match_declarative-narrow-focus_Ana-lleva-el-abrigo.wav,peruvian,match,declarative-narrow-focus,Ana lleva el abrigo,0,0,1,1.814535,7,1.32,0.49453499999999995
5c60c298af517e0001a00b00,native,NA,Chile,Si,NA,NA,NA,andalusian_match_interrogative-total-yn_Manuela-vende-el-carro.wav,chilean,match,interrogative-total-yn,Manuela vende el carro,1,1,1,1.622285,8,1.29,0.33228499999999994
5c60c298af517e0001a00b00,native,NA,Chile,Si,NA,NA,NA,andalusian_mismatch_declarative-broad-focus_Mi-tia-odia-la-lluvia.wav,cuban,mismatch,declarative-broad-focus,Mi tia odia la lluvia,0,0,1,1.563415,9,1.47,0.09341500000000003
5c60c298af517e0001a00b00,native,NA,Chile,Si,NA,NA,NA,andalusian_mismatch_interrogative-total-yn_El-nino-oye-el-rio.wav,argentine,mismatch,interrogative-total-yn,El nino oye el rio,1,1,1,1.789145,10,1.19,0.599145
5c60c298af517e0001a00b00,native,NA,Chile,Si,NA,NA,NA,andalusian_match_interrogative-total-yn_Daniel-iba-a-Bolivia.wav,cuban,match,interrogative-total-yn,Daniel iba a Bolivia,1,0,0,1.734235,11,1.31,0.4242349999999999
5c60c298af517e0001a00b00,native,NA,Chile,Si,NA,NA,NA,andalusian_mismatch_declarative-narrow-focus_Mi-madre-come-la-fruta.wav,mexican,mismatch,declarative-narrow-focus,Mi madre come la fruta,0,0,1,1.73621,12,1.27,0.46621
5c60c298af517e0001a00b00,native,NA,Chile,Si,NA,NA,NA,andalusian_mismatch_interrogative-partial-wh_Por-que-desayuna-muy-bien.wav,puertorican,mismatch,interrogative-partial-wh,Por que desayuna muy bien,1,0,0,1.850885,13,1.26,0.5908849999999999
5c60c298af517e0001a00b00,native,NA,Chile,Si,NA,NA,NA,andalusian_mismatch_declarative-narrow-focus_El-bebe-comia-muy-bien.wav,peruvian,mismatch,declarative-narrow-focus,El bebe comia muy bien,0,0,1,2.155335,14,1.67,0.48533500000000007
5c60c298af517e0001a00b00,native,NA,Chile,Si,NA,NA,NA,andalusian_match_declarative-narrow-focus_David-leia-el-libro.wav,mexican,match,declarative-narrow-focus,David leia el libro,0,0,1,1.659405,15,1.09,0.5694049999999999
5c60c298af517e0001a00b00,native,NA,Chile,Si,NA,NA,NA,andalusian_mismatch_declarative-broad-focus_El-nino-oye-el-rio.wav,peruvian,mismatch,declarative-broad-focus,El nino oye el rio,0,0,1,2.528975,16,1.54,0.9889749999999999
5c60c298af517e0001a00b00,native,NA,Chile,Si,NA,NA,NA,andalusian_mismatch_declarative-narrow-focus_El-nino-oye-el-rio.wav,chilean,mismatch,declarative-narrow-focus,El nino oye el rio,0,0,1,1.39843,17,1.26,0.13843000000000005
5c60c298af517e0001a00b00,native,NA,Chile,Si,NA,NA,NA,andalusian_mismatch_interrogative-partial-wh_Cuando-comia-la-fruta.wav,andalusian,mismatch,interrogative-partial-wh,Cuando comia la fruta,1,0,0,2.20408,18,1.45,0.7540799999999999
5c60c298af517e0001a00b00,native,NA,Chile,Si,NA,NA,NA,andalusian_mismatch_interrogative-total-yn_El-bebe-comia-muy-bien.wav,mexican,mismatch,interrogative-total-yn,El bebe comia muy bien,1,0,0,1.749945,19,1.25,0.4999450000000001
5c60c298af517e0001a00b00,native,NA,Chile,Si,NA,NA,NA,andalusian_mismatch_interrogative-partial-wh_Por-que-vivia-en-Paris.wav,peruvian,mismatch,interrogative-partial-wh,Por que vivia en Paris,1,1,1,2.24639,20,1.55,0.6963899999999998
5c60c298af517e0001a00b00,native,NA,Chile,Si,NA,NA,NA,andalusian_match_interrogative-partial-wh_Por-que-iba-a-Bolivia.wav,andalusian,match,interrogative-partial-wh,Por que iba a Bolivia,1,1,1,1.685005,21,1.23,0.4550050000000001
5c60c298af517e0001a00b00,native,NA,Chile,Si,NA,NA,NA,andalusian_mismatch_interrogative-total-yn_Mi-tia-odia-la-lluvia.wav,castilian,mismatch,interrogative-total-yn,Mi tia odia la lluvia,1,1,1,1.85722,22,1.46,0.39722000000000013
5c60c298af517e0001a00b00,native,NA,Chile,Si,NA,NA,NA,andalusian_match_interrogative-partial-wh_Cuando-leia-el-libro.wav,andalusian,match,interrogative-partial-wh,Cuando leia el libro,1,0,0,2.534695,23,1.31,1.224695
5c60c298af517e0001a00b00,native,NA,Chile,Si,NA,NA,NA,andalusian_match_declarative-broad-focus_Daniel-iba-a-Bolivia.wav,andalusian,match,declarative-broad-focus,Daniel iba a Bolivia,0,0,1,1.9552,24,1.46,0.4952000000000001
5c60c298af517e0001a00b00,native,NA,Chile,Si,NA,NA,NA,andalusian_match_declarative-narrow-focus_Manuela-vende-el-carro.wav,andalusian,match,declarative-narrow-focus,Manuela vende el carro,0,0,1,2.0855,25,1.45,0.6355000000000002
5c60c298af517e0001a00b00,native,NA,Chile,Si,NA,NA,NA,andalusian_mismatch_interrogative-partial-wh_Cuando-miraba-la-luna.wav,puertorican,mismatch,interrogative-partial-wh,Cuando miraba la luna,1,0,0,1.69073,26,1.1,0.59073
5c60c298af517e0001a00b00,native,NA,Chile,Si,NA,NA,NA,andalusian_mismatch_declarative-narrow-focus_La-maestra-vive-en-Paris.wav,argentine,mismatch,declarative-narrow-focus,La maestra vive en Paris,0,0,1,2.495425,27,1.32,1.175425
5c60c298af517e0001a00b00,native,NA,Chile,Si,NA,NA,NA,andalusian_match_declarative-broad-focus_Marta-abre-el-regalo.wav,puertorican,match,declarative-broad-focus,Marta abre el regalo,0,0,1,1.94017,28,1.18,0.76017
5c60c298af517e0001a00b00,native,NA,Chile,Si,NA,NA,NA,andalusian_match_declarative-broad-focus_Mariano-habla-del-tiempo.wav,andalusian,match,declarative-broad-focus,Mariano habla del tiempo,0,0,1,1.830905,29,1.57,0.26090499999999994
5c60c298af517e0001a00b00,native,NA,Chile,Si,NA,NA,NA,andalusian_mismatch_declarative-narrow-focus_El-hombre-mira-la-luna.wav,peruvian,mismatch,declarative-narrow-focus,El hombre mira la luna,0,0,1,1.765485,30,1.43,0.33548500000000003
5c60c298af517e0001a00b00,native,NA,Chile,Si,NA,NA,NA,andalusian_mismatch_interrogative-partial-wh_Por-que-odiaba-la-lluvia.wav,castilian,mismatch,interrogative-partial-wh,Por que odiaba la lluvia,1,1,1,1.98156,31,1.55,0.43155999999999994
5c60c298af517e0001a00b00,native,NA,Chile,Si,NA,NA,NA,andalusian_match_declarative-narrow-focus_Mariano-habla-del-tiempo.wav,puertorican,match,declarative-narrow-focus,Mariano habla del tiempo,0,0,1,1.528495,32,1.31,0.21849499999999988
5c60c298af517e0001a00b00,native,NA,Chile,Si,NA,NA,NA,andalusian_match_interrogative-partial-wh_Por-que-ama-la-navidad.wav,puertorican,match,interrogative-partial-wh,Por que ama la navidad,1,1,1,1.377615,33,1.17,0.2076150000000001
5c60c298af517e0001a00b00,native,NA,Chile,Si,NA,NA,NA,andalusian_match_interrogative-total-yn_Emilio-ama-la-marcha.wav,andalusian,match,interrogative-total-yn,Emilio ama la marcha,1,1,1,1.658175,34,1.38,0.27817500000000006
5c60c298af517e0001a00b00,native,NA,Chile,Si,NA,NA,NA,andalusian_match_interrogative-partial-wh_Cuando-vendia-el-carro.wav,chilean,match,interrogative-partial-wh,Cuando vendia el carro,1,1,1,1.791715,35,1.32,0.4717149999999999
5c60c298af517e0001a00b00,native,NA,Chile,Si,NA,NA,NA,andalusian_match_declarative-broad-focus_Manuela-vende-el-carro.wav,argentine,match,declarative-broad-focus,Manuela vende el carro,0,0,1,1.81619,36,1.38,0.4361900000000001
5c60c298af517e0001a00b00,native,NA,Chile,Si,NA,NA,NA,andalusian_mismatch_declarative-broad-focus_La-maestra-vive-en-Paris.wav,castilian,mismatch,declarative-broad-focus,La maestra vive en Paris,0,0,1,1.77563,37,1.6,0.17562999999999995
5c60c298af517e0001a00b00,native,NA,Chile,Si,NA,NA,NA,andalusian_mismatch_interrogative-total-yn_Mi-madre-come-la-fruta.wav,andalusian,mismatch,interrogative-total-yn,Mi madre come la fruta,1,1,1,1.54441,38,1.36,0.18440999999999996
5c60c298af517e0001a00b00,native,NA,Chile,Si,NA,NA,NA,andalusian_mismatch_interrogative-total-yn_Mi-novio-viene-del-lago.wav,puertorican,mismatch,interrogative-total-yn,Mi novio viene del lago,1,0,0,1.522415,39,1.26,0.26241500000000006
5c60c298af517e0001a00b00,native,NA,Chile,Si,NA,NA,NA,andalusian_mismatch_interrogative-total-yn_El-hombre-mira-la-luna.wav,cuban,mismatch,interrogative-total-yn,El hombre mira la luna,1,1,1,3.15702,40,1.11,2.04702
5c60c298af517e0001a00b00,native,NA,Chile,Si,NA,NA,NA,andalusian_match_declarative-narrow-focus_Emilio-ama-la-marcha.wav,mexican,match,declarative-narrow-focus,Emilio ama la marcha,0,0,1,1.778145,41,1.14,0.6381450000000002
5c60c298af517e0001a00b00,native,NA,Chile,Si,NA,NA,NA,andalusian_match_interrogative-total-yn_Ana-lleva-el-abrigo.wav,peruvian,match,interrogative-total-yn,Ana lleva el abrigo,1,0,0,1.3066,42,1.39,-0.08339999999999992
5c60c298af517e0001a00b00,native,NA,Chile,Si,NA,NA,NA,andalusian_mismatch_declarative-narrow-focus_Mi-tia-odia-la-lluvia.wav,andalusian,mismatch,declarative-narrow-focus,Mi tia odia la lluvia,0,0,1,1.925355,43,1.36,0.5653549999999998
5c60c298af517e0001a00b00,native,NA,Chile,Si,NA,NA,NA,andalusian_mismatch_declarative-broad-focus_El-hombre-mira-la-luna.wav,castilian,mismatch,declarative-broad-focus,El hombre mira la luna,0,0,1,1.530565,44,1.37,0.16056499999999985
5c60c298af517e0001a00b00,native,NA,Chile,Si,NA,NA,NA,andalusian_mismatch_interrogative-total-yn_La-maestra-vive-en-Paris.wav,chilean,mismatch,interrogative-total-yn,La maestra vive en Paris,1,1,1,2.07448,45,1.3,0.7744799999999998
5c60c298af517e0001a00b00,native,NA,Chile,Si,NA,NA,NA,andalusian_match_interrogative-total-yn_Mariano-habla-del-tiempo.wav,andalusian,match,interrogative-total-yn,Mariano habla del tiempo,1,1,1,1.840825,46,1.6,0.24082499999999984
5c60c298af517e0001a00b00,native,NA,Chile,Si,NA,NA,NA,andalusian_match_interrogative-total-yn_Marta-abre-el-regalo.wav,puertorican,match,interrogative-total-yn,Marta abre el regalo,1,0,0,1.84734,47,1.15,0.6973400000000001
5c60c298af517e0001a00b00,native,NA,Chile,Si,NA,NA,NA,andalusian_match_declarative-broad-focus_Ana-lleva-el-abrigo.wav,puertorican,match,declarative-broad-focus,Ana lleva el abrigo,0,0,1,1.38156,48,1.05,0.33155999999999985
5c60c298af517e0001a00b00,native,NA,Chile,Si,NA,NA,NA,andalusian_mismatch_interrogative-total-yn_La-nina-lava-el-plato.wav,cuban,mismatch,interrogative-total-yn,La nina lava el plato,1,0,0,3.100645,49,1.19,1.9106450000000001
5c60c298af517e0001a00b00,native,NA,Chile,Si,NA,NA,NA,andalusian_match_interrogative-total-yn_David-leia-el-libro.wav,cuban,match,interrogative-total-yn,David leia el libro,1,1,1,1.707215,50,1.32,0.38721499999999986
5c60c298af517e0001a00b00,native,NA,Chile,Si,NA,NA,NA,andalusian_mismatch_interrogative-partial-wh_Por-que-oia-el-rio.wav,castilian,mismatch,interrogative-partial-wh,Por que oia el rio,1,1,1,1.75892,51,1.36,0.39891999999999994
5c60c298af517e0001a00b00,native,NA,Chile,Si,NA,NA,NA,andalusian_match_declarative-narrow-focus_Maria-bebe-el-vino.wav,argentine,match,declarative-narrow-focus,Maria bebe el vino,0,0,1,2.28874,52,1.22,1.0687400000000002
5c60c298af517e0001a00b00,native,NA,Chile,Si,NA,NA,NA,andalusian_mismatch_interrogative-partial-wh_Por-que-venia-del-lago.wav,argentine,mismatch,interrogative-partial-wh,Por que venia del lago,1,0,0,2.096295,53,1.15,0.9462950000000001
5c60c298af517e0001a00b00,native,NA,Chile,Si,NA,NA,NA,andalusian_match_declarative-narrow-focus_Marta-abre-el-regalo.wav,andalusian,match,declarative-narrow-focus,Marta abre el regalo,0,0,1,2.0989,54,1.45,0.6489
5c60c298af517e0001a00b00,native,NA,Chile,Si,NA,NA,NA,andalusian_match_interrogative-partial-wh_Por-que-abre-el-regalo.wav,puertorican,match,interrogative-partial-wh,Por que abre el regalo,1,1,1,1.55133,55,1.15,0.4013300000000002
5c60c298af517e0001a00b00,native,NA,Chile,Si,NA,NA,NA,andalusian_match_declarative-broad-focus_Maria-bebe-el-vino.wav,andalusian,match,declarative-broad-focus,Maria bebe el vino,0,0,1,1.33246,56,1.11,0.22245999999999988
5c60c298af517e0001a00b00,native,NA,Chile,Si,NA,NA,NA,andalusian_mismatch_declarative-narrow-focus_La-nina-lava-el-plato.wav,cuban,mismatch,declarative-narrow-focus,La nina lava el plato,0,0,1,1.447305,57,1.16,0.28730500000000014
5c60c298af517e0001a00b00,native,NA,Chile,Si,NA,NA,NA,andalusian_mismatch_declarative-broad-focus_La-nina-lava-el-plato.wav,andalusian,mismatch,declarative-broad-focus,La nina lava el plato,0,0,1,1.39224,58,1.21,0.18223999999999996
5c60c298af517e0001a00b00,native,NA,Chile,Si,NA,NA,NA,andalusian_match_declarative-broad-focus_David-leia-el-libro.wav,andalusian,match,declarative-broad-focus,David leia el libro,0,0,1,1.509865,59,1.43,0.07986500000000007
5c60c298af517e0001a00b00,native,NA,Chile,Si,NA,NA,NA,andalusian_match_declarative-broad-focus_Emilio-ama-la-marcha.wav,cuban,match,declarative-broad-focus,Emilio ama la marcha,0,0,1,1.60944,60,1.23,0.37944
5c60c298af517e0001a00b00,native,NA,Chile,Si,NA,NA,NA,andalusian_match_declarative-narrow-focus_Daniel-iba-a-Bolivia.wav,castilian,match,declarative-narrow-focus,Daniel iba a Bolivia,0,0,1,1.848305,61,1.5,0.3483050000000001
5c60c298af517e0001a00b00,native,NA,Chile,Si,NA,NA,NA,andalusian_match_interrogative-partial-wh_Cuando-lleva-el-abrigo.wav,argentine,match,interrogative-partial-wh,Cuando lleva el abrigo,1,1,1,2.32646,62,1.21,1.11646
5c60c298af517e0001a00b00,native,NA,Chile,Si,NA,NA,NA,andalusian_mismatch_declarative-narrow-focus_Mi-novio-viene-del-lago.wav,chilean,mismatch,declarative-narrow-focus,Mi novio viene del lago,0,0,1,1.474835,63,1.37,0.10483499999999979
5cb62e72ebe8a50001a9b7c8,native,NA,Mexico,Sí,NA,NA,NA,andalusian_mismatch_interrogative-partial-wh_Cuando-miraba-la-luna.wav,cuban,mismatch,interrogative-partial-wh,Cuando miraba la luna,1,1,1,2.022615,0,1.17,0.8526150000000001
5cb62e72ebe8a50001a9b7c8,native,NA,Mexico,Sí,NA,NA,NA,andalusian_mismatch_interrogative-partial-wh_Por-que-oia-el-rio.wav,argentine,mismatch,interrogative-partial-wh,Por que oia el rio,1,0,0,1.92862,1,1.2,0.72862
5cb62e72ebe8a50001a9b7c8,native,NA,Mexico,Sí,NA,NA,NA,andalusian_mismatch_declarative-broad-focus_La-nina-lava-el-plato.wav,peruvian,mismatch,declarative-broad-focus,La nina lava el plato,0,0,1,1.97066,2,1.5,0.4706600000000001
5cb62e72ebe8a50001a9b7c8,native,NA,Mexico,Sí,NA,NA,NA,andalusian_mismatch_interrogative-total-yn_La-maestra-vive-en-Paris.wav,chilean,mismatch,interrogative-total-yn,La maestra vive en Paris,1,1,1,1.98038,3,1.3,0.68038
5cb62e72ebe8a50001a9b7c8,native,NA,Mexico,Sí,NA,NA,NA,andalusian_mismatch_interrogative-total-yn_El-hombre-mira-la-luna.wav,andalusian,mismatch,interrogative-total-yn,El hombre mira la luna,1,1,1,1.83098,4,1.32,0.51098
5cb62e72ebe8a50001a9b7c8,native,NA,Mexico,Sí,NA,NA,NA,andalusian_mismatch_interrogative-partial-wh_Por-que-venia-del-lago.wav,peruvian,mismatch,interrogative-partial-wh,Por que venia del lago,1,1,1,2.19557,5,1.43,0.7655700000000001
5cb62e72ebe8a50001a9b7c8,native,NA,Mexico,Sí,NA,NA,NA,andalusian_match_declarative-narrow-focus_Emilio-ama-la-marcha.wav,argentine,match,declarative-narrow-focus,Emilio ama la marcha,0,0,1,1.93483,6,1.38,0.5548300000000002
5cb62e72ebe8a50001a9b7c8,native,NA,Mexico,Sí,NA,NA,NA,andalusian_mismatch_declarative-broad-focus_Mi-madre-come-la-fruta.wav,castilian,mismatch,declarative-broad-focus,Mi madre come la fruta,0,0,1,2.05825,7,1.49,0.5682500000000001
5cb62e72ebe8a50001a9b7c8,native,NA,Mexico,Sí,NA,NA,NA,andalusian_mismatch_declarative-broad-focus_La-maestra-vive-en-Paris.wav,argentine,mismatch,declarative-broad-focus,La maestra vive en Paris,0,0,1,2.049455,8,1.43,0.6194550000000001
5cb62e72ebe8a50001a9b7c8,native,NA,Mexico,Sí,NA,NA,NA,andalusian_match_interrogative-partial-wh_Cuando-leia-el-libro.wav,argentine,match,interrogative-partial-wh,Cuando leia el libro,1,1,1,1.518975,9,1.09,0.4289749999999999
5cb62e72ebe8a50001a9b7c8,native,NA,Mexico,Sí,NA,NA,NA,andalusian_mismatch_declarative-narrow-focus_Mi-tia-odia-la-lluvia.wav,peruvian,mismatch,declarative-narrow-focus,Mi tia odia la lluvia,0,0,1,1.916205,10,1.61,0.30620499999999984
5cb62e72ebe8a50001a9b7c8,native,NA,Mexico,Sí,NA,NA,NA,andalusian_match_interrogative-partial-wh_Por-que-hablaba-del-agua.wav,argentine,match,interrogative-partial-wh,Por que hablaba del agua,1,1,1,1.74816,11,1.36,0.38815999999999984
5cb62e72ebe8a50001a9b7c8,native,NA,Mexico,Sí,NA,NA,NA,andalusian_mismatch_declarative-narrow-focus_Mi-madre-come-la-fruta.wav,peruvian,mismatch,declarative-narrow-focus,Mi madre come la fruta,0,0,1,1.811295,12,1.63,0.1812950000000002
5cb62e72ebe8a50001a9b7c8,native,NA,Mexico,Sí,NA,NA,NA,andalusian_mismatch_declarative-broad-focus_El-bebe-comia-muy-bien.wav,argentine,mismatch,declarative-broad-focus,El bebe comia muy bien,0,0,1,1.70002,13,1.51,0.19002000000000008
5cb62e72ebe8a50001a9b7c8,native,NA,Mexico,Sí,NA,NA,NA,andalusian_mismatch_declarative-narrow-focus_El-bebe-comia-muy-bien.wav,andalusian,mismatch,declarative-narrow-focus,El bebe comia muy bien,0,0,1,3.76495,14,1.31,2.4549499999999997
5cb62e72ebe8a50001a9b7c8,native,NA,Mexico,Sí,NA,NA,NA,andalusian_match_declarative-narrow-focus_David-leia-el-libro.wav,mexican,match,declarative-narrow-focus,David leia el libro,0,0,1,1.774025,15,1.09,0.6840249999999999
5cb62e72ebe8a50001a9b7c8,native,NA,Mexico,Sí,NA,NA,NA,andalusian_mismatch_declarative-narrow-focus_El-hombre-mira-la-luna.wav,mexican,mismatch,declarative-narrow-focus,El hombre mira la luna,0,0,1,1.45856,16,1.05,0.40856000000000003
5cb62e72ebe8a50001a9b7c8,native,NA,Mexico,Sí,NA,NA,NA,andalusian_match_declarative-broad-focus_Marta-abre-el-regalo.wav,castilian,match,declarative-broad-focus,Marta abre el regalo,0,0,1,1.91803,17,1.4,0.51803
5cb62e72ebe8a50001a9b7c8,native,NA,Mexico,Sí,NA,NA,NA,andalusian_mismatch_declarative-broad-focus_El-nino-oye-el-rio.wav,puertorican,mismatch,declarative-broad-focus,El nino oye el rio,0,0,1,1.75886,18,1.14,0.6188600000000002
5cb62e72ebe8a50001a9b7c8,native,NA,Mexico,Sí,NA,NA,NA,andalusian_match_interrogative-partial-wh_Por-que-abre-el-regalo.wav,castilian,match,interrogative-partial-wh,Por que abre el regalo,1,1,1,2.3146,19,1.39,0.9246000000000001
5cb62e72ebe8a50001a9b7c8,native,NA,Mexico,Sí,NA,NA,NA,andalusian_mismatch_declarative-narrow-focus_La-maestra-vive-en-Paris.wav,puertorican,mismatch,declarative-narrow-focus,La maestra vive en Paris,0,0,1,1.543075,20,1.19,0.35307500000000003
5cb62e72ebe8a50001a9b7c8,native,NA,Mexico,Sí,NA,NA,NA,andalusian_mismatch_declarative-broad-focus_Mi-novio-viene-del-lago.wav,chilean,mismatch,declarative-broad-focus,Mi novio viene del lago,0,0,1,1.9119,21,1.44,0.4719
5cb62e72ebe8a50001a9b7c8,native,NA,Mexico,Sí,NA,NA,NA,andalusian_match_interrogative-total-yn_Maria-bebe-el-vino.wav,castilian,match,interrogative-total-yn,Maria bebe el vino,1,1,1,1.6639,22,1.31,0.3538999999999999
5cb62e72ebe8a50001a9b7c8,native,NA,Mexico,Sí,NA,NA,NA,andalusian_mismatch_declarative-narrow-focus_El-nino-oye-el-rio.wav,peruvian,mismatch,declarative-narrow-focus,El nino oye el rio,0,0,1,1.890695,23,1.57,0.32069499999999995
5cb62e72ebe8a50001a9b7c8,native,NA,Mexico,Sí,NA,NA,NA,andalusian_match_interrogative-total-yn_Emilio-ama-la-marcha.wav,cuban,match,interrogative-total-yn,Emilio ama la marcha,1,1,1,2.352755,24,1.28,1.0727550000000001
5cb62e72ebe8a50001a9b7c8,native,NA,Mexico,Sí,NA,NA,NA,andalusian_match_declarative-broad-focus_Mariano-habla-del-tiempo.wav,puertorican,match,declarative-broad-focus,Mariano habla del tiempo,0,0,1,2.25894,25,1.29,0.9689399999999999
5cb62e72ebe8a50001a9b7c8,native,NA,Mexico,Sí,NA,NA,NA,andalusian_match_interrogative-total-yn_David-leia-el-libro.wav,cuban,match,interrogative-total-yn,David leia el libro,1,1,1,1.776525,26,1.32,0.45652499999999985
5cb62e72ebe8a50001a9b7c8,native,NA,Mexico,Sí,NA,NA,NA,andalusian_match_declarative-narrow-focus_Ana-lleva-el-abrigo.wav,peruvian,match,declarative-narrow-focus,Ana lleva el abrigo,0,0,1,1.79584,27,1.32,0.47584000000000004
5cb62e72ebe8a50001a9b7c8,native,NA,Mexico,Sí,NA,NA,NA,andalusian_match_declarative-broad-focus_Emilio-ama-la-marcha.wav,peruvian,match,declarative-broad-focus,Emilio ama la marcha,0,0,1,1.58658,28,1.44,0.14658000000000015
5cb62e72ebe8a50001a9b7c8,native,NA,Mexico,Sí,NA,NA,NA,andalusian_mismatch_interrogative-partial-wh_Cuando-comia-la-fruta.wav,argentine,mismatch,interrogative-partial-wh,Cuando comia la fruta,1,1,1,1.42658,29,1.32,0.1065799999999999
5cb62e72ebe8a50001a9b7c8,native,NA,Mexico,Sí,NA,NA,NA,andalusian_mismatch_interrogative-total-yn_Mi-madre-come-la-fruta.wav,castilian,mismatch,interrogative-total-yn,Mi madre come la fruta,1,1,1,1.664285,30,1.51,0.154285
5cb62e72ebe8a50001a9b7c8,native,NA,Mexico,Sí,NA,NA,NA,andalusian_mismatch_interrogative-partial-wh_Por-que-odiaba-la-lluvia.wav,puertorican,mismatch,interrogative-partial-wh,Por que odiaba la lluvia,1,0,0,2.179275,31,1.18,0.9992750000000001
5cb62e72ebe8a50001a9b7c8,native,NA,Mexico,Sí,NA,NA,NA,andalusian_match_interrogative-total-yn_Marta-abre-el-regalo.wav,argentine,match,interrogative-total-yn,Marta abre el regalo,1,1,1,1.931745,32,1.34,0.591745
5cb62e72ebe8a50001a9b7c8,native,NA,Mexico,Sí,NA,NA,NA,andalusian_mismatch_interrogative-partial-wh_Cuando-lavaba-el-plato.wav,mexican,mismatch,interrogative-partial-wh,Cuando lavaba el plato,1,1,1,1.471445,33,1.06,0.41144499999999984
5cb62e72ebe8a50001a9b7c8,native,NA,Mexico,Sí,NA,NA,NA,andalusian_match_declarative-narrow-focus_Daniel-iba-a-Bolivia.wav,puertorican,match,declarative-narrow-focus,Daniel iba a Bolivia,0,0,1,1.725355,34,1,0.725355
5cb62e72ebe8a50001a9b7c8,native,NA,Mexico,Sí,NA,NA,NA,andalusian_match_declarative-narrow-focus_Maria-bebe-el-vino.wav,argentine,match,declarative-narrow-focus,Maria bebe el vino,0,0,1,1.59232,35,1.22,0.37232
5cb62e72ebe8a50001a9b7c8,native,NA,Mexico,Sí,NA,NA,NA,andalusian_mismatch_interrogative-total-yn_Mi-novio-viene-del-lago.wav,andalusian,mismatch,interrogative-total-yn,Mi novio viene del lago,1,1,1,1.52171,36,1.42,0.10170999999999997
5cb62e72ebe8a50001a9b7c8,native,NA,Mexico,Sí,NA,NA,NA,andalusian_match_declarative-broad-focus_Maria-bebe-el-vino.wav,andalusian,match,declarative-broad-focus,Maria bebe el vino,0,0,1,1.50981,37,1.11,0.39981
5cb62e72ebe8a50001a9b7c8,native,NA,Mexico,Sí,NA,NA,NA,andalusian_match_interrogative-total-yn_Manuela-vende-el-carro.wav,peruvian,match,interrogative-total-yn,Manuela vende el carro,1,1,1,2.009425,38,1.56,0.44942499999999974
5cb62e72ebe8a50001a9b7c8,native,NA,Mexico,Sí,NA,NA,NA,andalusian_mismatch_interrogative-total-yn_La-nina-lava-el-plato.wav,castilian,mismatch,interrogative-total-yn,La nina lava el plato,1,1,1,2.00977,39,1.45,0.5597700000000001
5cb62e72ebe8a50001a9b7c8,native,NA,Mexico,Sí,NA,NA,NA,andalusian_mismatch_interrogative-total-yn_El-nino-oye-el-rio.wav,puertorican,mismatch,interrogative-total-yn,El nino oye el rio,1,1,1,1.73662,40,1.13,0.6066200000000002
5cb62e72ebe8a50001a9b7c8,native,NA,Mexico,Sí,NA,NA,NA,andalusian_match_declarative-broad-focus_Manuela-vende-el-carro.wav,castilian,match,declarative-broad-focus,Manuela vende el carro,0,0,1,1.822475,41,1.53,0.29247500000000004
5cb62e72ebe8a50001a9b7c8,native,NA,Mexico,Sí,NA,NA,NA,andalusian_mismatch_interrogative-total-yn_El-bebe-comia-muy-bien.wav,argentine,mismatch,interrogative-total-yn,El bebe comia muy bien,1,1,1,1.69732,42,1.29,0.4073199999999999
5cb62e72ebe8a50001a9b7c8,native,NA,Mexico,Sí,NA,NA,NA,andalusian_match_declarative-broad-focus_Daniel-iba-a-Bolivia.wav,peruvian,match,declarative-broad-focus,Daniel iba a Bolivia,0,0,1,2.04942,43,1.44,0.6094200000000001
5cb62e72ebe8a50001a9b7c8,native,NA,Mexico,Sí,NA,NA,NA,andalusian_match_interrogative-partial-wh_Cuando-lleva-el-abrigo.wav,chilean,match,interrogative-partial-wh,Cuando lleva el abrigo,1,1,1,1.73436,44,1.17,0.56436
5cb62e72ebe8a50001a9b7c8,native,NA,Mexico,Sí,NA,NA,NA,andalusian_match_declarative-narrow-focus_Manuela-vende-el-carro.wav,chilean,match,declarative-narrow-focus,Manuela vende el carro,0,1,0,1.723115,45,1.01,0.7131149999999999
5cb62e72ebe8a50001a9b7c8,native,NA,Mexico,Sí,NA,NA,NA,andalusian_mismatch_declarative-broad-focus_El-hombre-mira-la-luna.wav,peruvian,mismatch,declarative-broad-focus,El hombre mira la luna,0,0,1,1.6390150000000001,46,1.35,0.289015
5cb62e72ebe8a50001a9b7c8,native,NA,Mexico,Sí,NA,NA,NA,andalusian_match_interrogative-partial-wh_Por-que-ama-la-navidad.wav,chilean,match,interrogative-partial-wh,Por que ama la navidad,1,1,1,1.75855,47,1.19,0.5685500000000001
5cb62e72ebe8a50001a9b7c8,native,NA,Mexico,Sí,NA,NA,NA,andalusian_match_declarative-narrow-focus_Mariano-habla-del-tiempo.wav,puertorican,match,declarative-narrow-focus,Mariano habla del tiempo,0,0,1,1.695295,48,1.31,0.38529499999999994
5cb62e72ebe8a50001a9b7c8,native,NA,Mexico,Sí,NA,NA,NA,andalusian_mismatch_interrogative-partial-wh_Por-que-desayuna-muy-bien.wav,cuban,mismatch,interrogative-partial-wh,Por que desayuna muy bien,1,1,1,1.696485,49,1.36,0.3364849999999999
5cb62e72ebe8a50001a9b7c8,native,NA,Mexico,Sí,NA,NA,NA,andalusian_mismatch_interrogative-partial-wh_Por-que-vivia-en-Paris.wav,puertorican,mismatch,interrogative-partial-wh,Por que vivia en Paris,1,1,1,1.63987,50,1.04,0.5998699999999999
5cb62e72ebe8a50001a9b7c8,native,NA,Mexico,Sí,NA,NA,NA,andalusian_match_interrogative-partial-wh_Cuando-vendia-el-carro.wav,chilean,match,interrogative-partial-wh,Cuando vendia el carro,1,1,1,1.607235,51,1.32,0.2872349999999999
5cb62e72ebe8a50001a9b7c8,native,NA,Mexico,Sí,NA,NA,NA,andalusian_match_interrogative-total-yn_Daniel-iba-a-Bolivia.wav,mexican,match,interrogative-total-yn,Daniel iba a Bolivia,1,1,1,1.665055,52,1.33,0.3350549999999999
5cb62e72ebe8a50001a9b7c8,native,NA,Mexico,Sí,NA,NA,NA,andalusian_match_interrogative-partial-wh_Cuando-bebia-el-vino.wav,chilean,match,interrogative-partial-wh,Cuando bebia el vino,1,1,1,1.571725,53,1.24,0.33172500000000005
5cb62e72ebe8a50001a9b7c8,native,NA,Mexico,Sí,NA,NA,NA,andalusian_match_interrogative-partial-wh_Por-que-iba-a-Bolivia.wav,peruvian,match,interrogative-partial-wh,Por que iba a Bolivia,1,1,1,1.656865,54,1.29,0.366865
5cb62e72ebe8a50001a9b7c8,native,NA,Mexico,Sí,NA,NA,NA,andalusian_match_declarative-broad-focus_David-leia-el-libro.wav,mexican,match,declarative-broad-focus,David leia el libro,0,0,1,1.827015,55,1.1,0.727015
5cb62e72ebe8a50001a9b7c8,native,NA,Mexico,Sí,NA,NA,NA,andalusian_match_declarative-narrow-focus_Marta-abre-el-regalo.wav,chilean,match,declarative-narrow-focus,Marta abre el regalo,0,0,1,1.66186,56,1.1,0.5618599999999998
5cb62e72ebe8a50001a9b7c8,native,NA,Mexico,Sí,NA,NA,NA,andalusian_mismatch_declarative-broad-focus_Mi-tia-odia-la-lluvia.wav,cuban,mismatch,declarative-broad-focus,Mi tia odia la lluvia,0,0,1,1.80035,57,1.47,0.3303499999999999
5cb62e72ebe8a50001a9b7c8,native,NA,Mexico,Sí,NA,NA,NA,andalusian_mismatch_declarative-narrow-focus_La-nina-lava-el-plato.wav,peruvian,mismatch,declarative-narrow-focus,La nina lava el plato,0,0,1,1.84821,58,1.62,0.2282099999999998
5cb62e72ebe8a50001a9b7c8,native,NA,Mexico,Sí,NA,NA,NA,andalusian_match_interrogative-total-yn_Mariano-habla-del-tiempo.wav,puertorican,match,interrogative-total-yn,Mariano habla del tiempo,1,1,1,1.552125,59,1.27,0.28212499999999996
5cb62e72ebe8a50001a9b7c8,native,NA,Mexico,Sí,NA,NA,NA,andalusian_mismatch_interrogative-total-yn_Mi-tia-odia-la-lluvia.wav,peruvian,mismatch,interrogative-total-yn,Mi tia odia la lluvia,1,1,1,1.96072,60,1.6,0.36071999999999993
5cb62e72ebe8a50001a9b7c8,native,NA,Mexico,Sí,NA,NA,NA,andalusian_match_declarative-broad-focus_Ana-lleva-el-abrigo.wav,andalusian,match,declarative-broad-focus,Ana lleva el abrigo,0,1,0,2.14494,61,1.35,0.79494
